T [ms],AccX [mg],AccY [mg],AccZ [mg],GyroX [mdps],GyroY [mdps],GyroZ [mdps],MagX [mgauss],MagY [mgauss],MagZ [mgauss],P [mB],T [°C],
17284, 116, 261, -948, 10780, -5040, -3710, -55, 15, 408, 1016.67, 33.03
17324, 106, 279, -954, 7280, -630, -3150, -49, 12, 409, 1016.62, 33.03
17364, 126, 318, -950, 10150, -490, -1960, -52, 16, 417, 1016.63, 33.04
17404, 76, 336, -1001, 18760, -9380, 700, -55, 24, 414, 1016.59, 33.04
17444, 80, 380, -1001, 44800, -5670, -3920, -55, 19, 421, 1016.61, 33.05
17484, 37, 119, -1002, 85890, -2450, -19460, -54, 21, 421, 1016.67, 33.05
17524, 78, 168, -981, 69230, -2940, -12110, -54, 39, 430, 1016.63, 33.06
17564, 3, 100, -1084, 75950, -2240, -11550, -52, 27, 435, 1016.64, 33.06
17604, 66, -51, -1125, 86030, 17500, -30940, -54, 25, 448, 1016.65, 33.07
17644, 150, -122, -1045, 84070, 36680, -57890, -51, 18, 459, 1016.66, 33.07
17684, 363, -214, -904, 66920, 33530, -77420, -34, -16, 447, 1016.63, 33.07
17724, 429, -267, -794, 34860, -14280, -90020, -45, -22, 430, 1016.63, 33.08
17764, 278, -312, -799, -45010, -99400, -23730, -58, 4, 372, 1016.67, 33.08
17804, -57, 78, -781, -179480, -181650, 127890, -78, 18, 337, 1016.68, 33.07
17844, -597, 884, -1030, -218330, -143010, 176610, -75, 16, 358, 1016.72, 33.08
17884, -733, 914, -1025, 11620, 37240, 26740, -49, 1, 433, 1016.67, 33.09
17924, 338, 210, -449, 286720, 262150, -148820, -48, -21, 475, 1016.62, 33.09
17964, 1602, -1295, -485, 287000, 204330, -130620, -58, 12, 393, 1016.64, 33.09
18004, 753, -524, -429, -131670, -193270, 135520, -103, 21, 298, 1016.67, 33.09
18044, -889, 929, -952, -411600, -368970, 270900, -103, 25, 316, 1016.69, 33.09
18084, -1295, 1362, -1109, -150430, -88690, 68600, -61, -1, 417, 1016.67, 33.09
18124, -72, 795, -263, 279580, 292530, -177450, -58, -13, 448, 1016.65, 33.09
18164, 1586, -1038, -477, -90790, -112140, 120540, -75, 22, 372, 1016.65, 33.09
18204, -789, 870, -1002, -419860, -335440, 253610, -106, 19, 310, 1016.64, 33.09
18244, -1315, 1410, -1113, -140700, -73220, 53690, -79, 19, 343, 1016.67, 33.09
18284, -209, 988, -199, 302680, 306740, -192570, -64, 6, 453, 1016.65, 33.10
18324, 1617, -1115, -114, 417760, 366170, -204540, -49, -25, 486, 1016.63, 33.10
18364, 1291, -1199, -341, -68600, -103320, 133350, -49, 12, 435, 1016.63, 33.10
18404, -486, 820, -632, -528920, -434980, 336490, -112, 42, 303, 1016.60, 33.10
18444, -1636, 1903, -1080, -314440, -217910, 142170, -135, 21, 271, 1016.62, 33.10
18484, -413, 1463, 17, 308560, 274330, -215740, -75, 30, 391, 1016.62, 33.10
18524, 1616, -924, 115, 568820, 430850, -321370, -37, -24, 477, 1016.69, 33.10
18564, 1547, -1454, -279, 83370, -15400, 10430, -69, 18, 415, 1016.65, 33.10
18604, -536, 838, -490, -500360, -443520, 352800, -121, 42, 289, 1016.61, 33.09
18644, -1933, 1818, -1439, -317940, -245210, 151200, -114, 24, 295, 1016.64, 33.10
18684, -457, 1150, -187, 304430, 315770, -257740, -63, -7, 418, 1016.62, 33.10
18724, 1720, -1347, 13, 436520, 431970, -301280, -54, -30, 468, 1016.63, 33.11
18764, 1199, -476, 18, -157080, -122430, 144410, -82, 33, 349, 1016.62, 33.11
18804, -1480, 1441, -1070, -492170, -430150, 318430, -114, 18, 298, 1016.60, 33.11
18844, -1417, 1587, -894, -32480, 35140, -36470, -58, -1, 399, 1016.63, 33.12
18884, 869, 104, 117, 458850, 469490, -341880, -43, -49, 481, 1016.63, 33.13
18924, 1925, -1369, -104, 221970, 218540, -128240, -58, -7, 423, 1016.59, 33.12
18964, 83, 211, -378, -336140, -338380, 293790, -100, 24, 312, 1016.62, 33.12
19004, -1790, 1383, -1503, -371910, -323260, 235690, -87, 18, 339, 1016.61, 33.12
19044, -671, 1114, -570, 150290, 191940, -135800, -40, -39, 463, 1016.61, 33.14
19084, 1517, -763, -3, 424410, 398860, -293440, -55, -25, 448, 1016.60, 33.14
19124, 1515, -993, 20, -25060, -68110, 105070, -100, 40, 304, 1016.63, 33.14
19164, -996, 1249, -638, -537950, -502110, 417970, -145, 22, 264, 1016.60, 33.14
19204, -1776, 1952, -1170, -255360, -187180, 138740, -73, 10, 373, 1016.61, 33.14
19244, 156, 1092, 282, 398020, 405440, -303380, -52, -18, 471, 1016.64, 33.15
19284, 1943, -1647, -108, 422870, -265580, 280630, -79, 43, 355, 1016.64, 33.15
19324, -1806, 1744, -1457, -500360, -419230, 338100, -150, 36, 262, 1016.67, 33.14
19364, -1021, 1674, -449, 96320, 164920, -114310, -93, 15, 339, 1016.67, 33.15
19404, 1294, -302, 200, 528640, 510090, -398160, -42, -39, 466, 1016.64, 33.16
19444, 1761, -1263, -8, 126630, 88900, -26670, -61, -4, 420, 1016.67, 33.16
19484, -644, 910, -532, -466410, -443520, 369810, -123, 36, 294, 1016.62, 33.16
19524, -1938, 1560, -1406, -305060, -253120, 186340, -118, 24, 286, 1016.66, 33.16
19564, -407, 1241, -214, 262500, 322210, -229670, -55, -6, 411, 1016.65, 33.17
19604, 1679, -765, 115, 491820, 467600, -376600, -39, -43, 484, 1016.56, 33.18
19644, 1453, -798, 248, -33530, -95060, 110670, -76, 19, 357, 1016.55, 33.18
19684, -1262, 1405, -758, -563920, -544040, 449470, -147, 28, 261, 1016.54, 33.17
19724, -1859, 1872, -1304, -216370, -166110, 123340, -100, 25, 324, 1016.56, 33.17
19764, 136, 1184, 250, 420000, 467250, -339010, -39, -34, 463, 1016.62, 33.19
19804, 1960, -1556, 121, 472990, 422170, -337050, -46, -28, 450, 1016.65, 33.19
19844, 930, -1, 224, -246540, -241990, 253260, -115, 37, 304, 1016.63, 33.18
19884, -1610, 1623, -1255, -548800, -506170, 438830, -147, 24, 273, 1016.66, 33.18
19924, -1507, 1852, -832, -48860, 12810, 4900, -67, 3, 399, 1016.60, 33.19
19964, 986, 521, 399, 519750, 534800, -410690, -43, -48, 483, 1016.62, 33.20
20004, 1965, -1630, 133, 304570, 237930, -185010, -70, 27, 375, 1016.58, 33.20
20044, -25, 769, -52, -439460, -425950, 392560, -148, 33, 262, 1016.63, 33.19
20084, -1937, 1792, -1526, -449890, -409920, 339430, -102, 16, 325, 1016.62, 33.20
20124, -828, 1770, -81, 191310, 264740, -177590, -43, -34, 472, 1016.60, 33.20
20164, 1642, -520, 421, 583800, 563850, -460810, -43, -27, 459, 1016.63, 33.21
20204, 1692, -1087, 204, 69860, 22540, 12600, -112, 37, 303, 1016.63, 33.20
20244, -864, 1267, -483, -554750, -533890, 485730, -156, 30, 265, 1016.62, 33.21
20284, -1930, 1921, -1342, -322000, -257250, 222810, -67, 1, 406, 1016.64, 33.21
20324, -263, 1530, 280, 357280, 420980, -313110, -48, -61, 505, 1016.63, 33.22
20364, 1853, -1207, 314, 540820, 519680, -402850, -69, 6, 403, 1016.59, 33.22
20404, 1344, -553, 336, -125160, -145110, 187040, -150, 33, 261, 1016.60, 33.21
20444, -1145, 1450, -701, -243250, -204050, 146090, -135, 40, 283, 1016.58, 33.22
20484, -175, 1503, 293, 410200, 449120, -331100, -60, -10, 439, 1016.59, 33.23
20524, 1872, -1280, 249, 557620, 520170, -419510, -48, -52, 499, 1016.59, 33.24
20564, 1556, -625, 391, -108150, -118790, 142310, -78, 27, 369, 1016.57, 33.23
20604, -1151, 1474, -434, -598570, -611800, 486710, -171, 30, 252, 1016.59, 33.23
20644, -1902, 1992, -1342, -266840, -221620, 164710, -112, 33, 304, 1016.57, 33.23
20684, 33, 1392, 541, 457870, 497420, -366170, -45, -31, 468, 1016.60, 33.24
20724, 1971, -1622, 273, 518910, 487200, -382340, -48, -13, 465, 1016.57, 33.25
20764, 1149, -64, 428, -258020, -251300, 264600, -75, 25, 289, 1016.63, 33.24
20804, -1648, 1750, -927, -600250, -577990, 461440, -160, 42, 240, 1016.65, 33.23
20844, -1615, 1966, -828, -75040, -3220, 27440, -118, 40, 303, 1016.69, 33.24
20884, 765, 807, 731, 570220, 586390, -437710, -57, -22, 475, 1016.72, 33.25
20924, 1998, -1824, 163, 407890, 349930, -277130, -45, -36, 484, 1016.66, 33.26
20964, 623, 562, 368, -413070, -400470, 353150, -111, 42, 322, 1016.68, 33.25
21004, -1844, 1818, -1191, -537810, -540680, 386260, -169, 30, 253, 1016.67, 33.25
21044, -1289, 1776, -606, 56630, 111370, -95620, -96, 19, 357, 1016.62, 33.26
21084, 1050, 100, 296, 528640, 546490, -463190, -43, -55, 469, 1016.60, 33.27
21124, 1952, -1444, 3, 224560, 199010, -166740, -55, -6, 402, 1016.58, 33.26
21164, 94, 847, 47, -440160, -442330, 423640, -154, 34, 271, 1016.62, 33.25
21204, -1888, 1698, -1287, -458500, -443800, 364560, -154, 19, 262, 1016.62, 33.26
21244, -1348, 1874, -394, 118160, 196840, -123480, -66, 1, 403, 1016.61, 33.27
21284, 1129, -23, 682, 598920, 626990, -471940, -52, -58, 499, 1016.55, 33.28
21324, 1972, -1371, 298, 200830, 201320, -121520, -76, 24, 373, 1016.58, 33.27
21364, -48, 1003, 293, -533190, -522760, 451780, -165, 27, 250, 1016.60, 33.27
21404, -1969, 1920, -1387, -510510, -467180, 315980, -126, 12, 292, 1016.62, 33.28
21444, -1198, 1916, -36, 197890, 279370, -187740, -37, -37, 469, 1016.64, 33.29
21484, 1213, -11, 749, 683970, 682150, -521920, -45, -94, 520, 1016.62, 33.29
21524, 1998, -1456, 281, 279580, 257600, -216930, -54, -9, 393, 1016.65, 33.29
21564, 203, 883, 191, -438690, -476840, 353010, -109, 10, 291, 1016.66, 33.29
21604, -1911, 1332, -1317, 108500, 139720, -235480, -73, -24, 343, 1016.67, 33.29
21644, 692, -140, -445, 361970, 467670, -501690, -45, -117, 448, 1016.65, 33.30
21684, 1612, -549, -349, 167370, 223510, -282450, -45, -156, 468, 1016.65, 33.30
21724, 557, 406, -513, -99400, -168630, 95270, -49, -127, 427, 1016.66, 33.31
21764, -613, -3, -1137, -66010, -250740, 85190, -54, -127, 384, 1016.67, 33.32
21804, -1247, -245, -1360, 4340, -66150, -133000, -63, -159, 388, 1016.62, 33.33
21844, -242, 395, -808, 74480, 235830, -339290, -81, -229, 435, 1016.62, 33.33
21884, 1040, 85, -401, 160090, 306180, -357140, -108, -261, 465, 1016.60, 33.33
21924, 1768, 316, -169, 44030, 91350, 135240, -67, -192, 448, 1016.62, 33.33
21964, 515, 342, -126, -130060, -330960, 587370, -58, -75, 345, 1016.61, 33.35
22004, -1339, 162, -819, -209160, -490210, 621670, -114, -6, 270, 1016.64, 33.36
22044, -1877, 233, -1619, -83860, -198660, 151270, -96, -22, 297, 1016.63, 33.36
22084, -745, -323, -794, 290010, 213640, -491260, -55, -117, 355, 1016.64, 33.37
22124, 113, 137, -524, 227500, 297360, -691250, -87, -228, 390, 1016.67, 33.36
22164, 945, -9, -639, 138600, 213710, -525630, -108, -262, 393, 1016.65, 33.37
22204, 1442, -245, -389, 96250, 28770, -93520, -67, -199, 370, 1016.59, 33.37
22244, 1089, 100, -190, -106610, -209930, 561750, -82, -64, 297, 1016.54, 33.38
22284, -1268, 65, -765, -277620, -414750, 809690, -129, -22, 246, 1016.58, 33.38
22324, -1997, 43, -1272, -194810, -162820, 253050, -70, -91, 322, 1016.55, 33.39
22364, -442, 471, -189, 82180, 406280, -490840, -76, -202, 397, 1016.55, 33.38
22404, 1726, 243, -474, 119350, 395010, -573160, -66, -187, 408, 1016.63, 33.39
22444, 1488, 310, -224, -16730, 41930, 144690, -57, -72, 364, 1016.60, 33.40
22484, -230, 56, -622, -156800, -254240, 646940, -99, -12, 307, 1016.61, 33.40
22524, -1967, 104, -1405, -226100, -274750, 408310, -55, -70, 361, 1016.63, 33.40
22564, -1172, 606, -430, 58660, 258160, -302120, -69, -195, 460, 1016.59, 33.40
22604, 1400, 77, -170, 214270, 508690, -621390, -55, -180, 468, 1016.61, 33.40
22644, 1994, 221, -121, 2310, 124320, -73710, -55, -57, 367, 1016.61, 33.40
22684, 471, 498, -310, -208600, -357420, 579390, -103, -4, 295, 1016.60, 33.41
22724, -1904, 339, -1280, -248640, -465780, 471870, -52, -69, 379, 1016.58, 33.41
22764, -1705, 728, -638, 277760, 626710, -654220, -67, -202, 486, 1016.59, 33.41
22804, 1998, -180, 51, 89880, 259210, -200900, -48, -160, 487, 1016.59, 33.41
22844, 1053, 563, -73, -229600, -285180, 480060, -42, -45, 393, 1016.59, 33.41
22884, -1680, 471, -975, -274750, -510650, 467110, -90, -10, 306, 1016.59, 33.41
22924, -1222, -73, -1109, -65240, -134960, 38710, -64, -34, 333, 1016.62, 33.42
22964, 570, -420, -761, 34230, 142170, -188580, -58, -64, 345, 1016.60, 33.42
23004, 537, -159, -715, -81340, -38850, -60130, -76, -69, 307, 1016.56, 33.42
23044, -1099, 197, -1152, -115780, -187670, 70560, -87, -61, 292, 1016.59, 33.41
23084, -534, 476, -1002, -92260, -3990, 104650, -91, -63, 307, 1016.59, 33.41
23124, -369, -273, -904, -2170, 15260, -32620, -82, -97, 297, 1016.65, 33.42
23164, -681, -74, -795, -62160, -21630, -181230, -94, -142, 298, 1016.62, 33.42
23204, -641, 81, -794, -110530, 140, -272370, -105, -196, 313, 1016.61, 33.41
23244, 155, 409, -1164, -85540, 40950, -213220, -109, -201, 325, 1016.60, 33.42
23284, 421, 249, -1123, -47180, 21490, 62370, -96, -178, 331, 1016.59, 33.42
23324, -431, 846, -890, -31920, -22050, 351680, -69, -106, 334, 1016.59, 33.42
23364, -331, 372, -758, 113960, 34580, 405860, -73, -30, 333, 1016.61, 33.43
23404, -887, 0, -741, 142380, 59920, 221200, -60, -10, 363, 1016.60, 33.43
23444, -707, 194, -794, 33530, 100800, -84770, -52, -61, 378, 1016.58, 33.44
23484, 54, 149, -849, -5390, 114310, -342090, -54, -145, 400, 1016.65, 33.45
23524, 224, 160, -957, -30800, 59220, -380450, -70, -204, 408, 1016.64, 33.46
23564, 674, 466, -1024, -31080, 14000, -216090, -76, -198, 387, 1016.63, 33.46
23604, 678, 737, -1101, 65940, -109620, 64330, -70, -144, 324, 1016.63, 33.47
23644, -229, -125, -793, 187040, -298480, 341740, -111, -52, 262, 1016.64, 33.47
23684, -1032, -216, -572, 64610, -291270, 403690, -138, -24, 244, 1016.62, 33.48
23724, -1510, 171, -559, -61460, -72380, 188510, -100, -55, 292, 1016.58, 33.47
23764, -853, 278, -260, -90370, 263130, -91420, -55, -102, 375, 1016.58, 33.48
23804, 297, 422, -580, -188790, 450450, -180250, -48, -150, 459, 1016.59, 33.48
23844, 528, 766, -687, -231910, 390040, -136010, -58, -153, 510, 1016.58, 33.49
23884, 1132, 905, -933, -115640, 214410, 69160, -43, -136, 474, 1016.60, 33.50
23924, 707, 13, -913, 143500, -315280, 93660, -43, -109, 405, 1016.60, 33.50
23964, -732, 367, -834, 2590, -253540, 49420, -49, -100, 364, 1016.62, 33.50
24004, -694, 421, -657, -31080, 1960, -26950, -49, -103, 367, 1016.64, 33.50
24044, -181, 389, -462, -34300, 261520, -100170, -45, -135, 439, 1016.62, 33.50
24084, 506, 530, -605, -112630, 340970, -132090, -46, -165, 514, 1016.59, 33.50
24124, 1141, 878, -935, -96600, 191310, -73290, -55, -168, 538, 1016.56, 33.50
24164, 817, 874, -701, 64750, -148260, 29330, -46, -168, 472, 1016.56, 33.51
24204, 18, 155, -735, 178570, -387800, 85680, -54, -138, 372, 1016.56, 33.51
24244, -789, 21, -633, 52220, -398580, 68950, -76, -126, 313, 1016.58, 33.52
24284, -1276, 460, -685, -72520, -154910, -4410, -76, -139, 322, 1016.64, 33.52
24324, -724, 396, -445, -65870, 223230, -79590, -54, -172, 405, 1016.65, 33.52
24364, 170, 495, -516, -128940, 422730, -84350, -55, -184, 498, 1016.65, 33.53
24404, 871, 920, -707, -170730, 370860, -43960, -66, -187, 555, 1016.62, 33.53
24444, 1159, 1031, -736, -31080, 110810, 47670, -49, -169, 519, 1016.64, 33.53
24484, 446, 854, -508, 124040, -213780, 113400, -43, -142, 444, 1016.63, 33.53
24524, -142, 192, -643, 200340, -372470, 118090, -48, -118, 355, 1016.62, 33.55
24564, -881, 58, -615, 86940, -313390, 65240, -69, -124, 334, 1016.63, 33.55
24604, -963, 475, -687, -14770, -34020, -43960, -54, -148, 393, 1016.64, 33.55
24644, -115, 326, -659, 8120, 277480, -143290, -48, -171, 463, 1016.62, 33.55
24684, 614, 326, -962, -55790, 337120, -126280, -57, -186, 496, 1016.57, 33.56
24724, 1052, 752, -1089, -56630, 156310, -22400, -42, -165, 465, 1016.56, 33.56
24764, 695, 665, -820, 77490, -129570, 109690, -43, -115, 384, 1016.61, 33.56
24804, -27, 73, -744, 179410, -350840, 187180, -75, -87, 306, 1016.64, 33.57
24844, -778, -169, -608, 76650, -374710, 150150, -84, -85, 283, 1016.61, 33.57
24884, -1330, 318, -798, -47950, -131180, 5040, -60, -132, 355, 1016.55, 33.58
24924, -488, 139, -710, -42420, 249200, -152740, -54, -168, 450, 1016.59, 33.57
24964, 298, 251, -741, -144060, 412300, -173670, -58, -190, 511, 1016.62, 33.59
25004, 804, 657, -821, -217210, 314650, -100730, -58, -168, 516, 1016.60, 33.59
25044, 1117, 1001, -733, 100520, -249270, 156310, -39, -130, 436, 1016.58, 33.59
25084, -431, -80, -691, 119560, -402990, 154140, -58, -102, 349, 1016.56, 33.60
25124, -1085, 231, -738, -31150, -297010, 53200, -70, -106, 313, 1016.61, 33.61
25164, -911, 376, -677, -50400, 33390, -94920, -57, -130, 357, 1016.69, 33.61
25204, -119, 356, -549, -89530, 323960, -159740, -57, -172, 444, 1016.67, 33.60
25244, 433, 599, -619, -205380, 387100, -128940, -70, -201, 528, 1016.62, 33.61
25284, 1047, 1043, -708, -176400, 251510, -8260, -72, -174, 555, 1016.63, 33.61
25324, 882, 1092, -584, 38080, -41720, 113960, -45, -154, 501, 1016.68, 33.62
25364, 346, 263, -688, 229390, -286650, 152670, -49, -132, 403, 1016.66, 33.62
25404, -601, -380, -778, 170240, -401520, 75110, -58, -129, 336, 1016.61, 33.63
25444, -874, -41, -865, -32690, -289520, -71680, -85, -166, 321, 1016.61, 33.63
25484, -714, 371, -753, -130340, -39480, -191800, -87, -216, 355, 1016.59, 33.63
25524, -345, 620, -635, -172760, 141260, -172060, -82, -238, 400, 1016.58, 33.63
25564, 86, 884, -770, -148750, 177380, -26110, -78, -211, 433, 1016.62, 33.63
25604, 396, 955, -823, -31990, 121310, 146160, -46, -171, 429, 1016.58, 33.64
25644, 80, 740, -710, 103110, 11830, 254240, -43, -102, 411, 1016.62, 33.65
25684, -89, 136, -942, 181300, -45570, 265720, -46, -75, 411, 1016.68, 33.66
25724, -303, -423, -1076, 137480, -38850, 115780, -30, -93, 400, 1016.61, 33.66
25764, -395, -53, -973, -25480, -27160, -102200, -49, -150, 397, 1016.63, 33.66
25804, -51, 523, -831, -83020, -26460, -231070, -55, -174, 393, 1016.60, 33.66
25844, -123, 472, -879, -21280, -20720, -251580, -67, -213, 390, 1016.58, 33.66
25884, -41, 484, -915, -18620, 16520, -142380, -76, -217, 409, 1016.59, 33.67
25924, 32, 601, -817, -40180, 67970, 30100, -61, -198, 430, 1016.65, 33.67
25964, 174, 614, -809, -4550, 140140, 155400, -34, -157, 460, 1016.68, 33.68
26004, 485, 145, -977, 110670, 167370, 219870, -36, -106, 465, 1016.66, 33.69
26044, 561, -353, -1268, 149520, 14700, 216860, -27, -75, 418, 1016.66, 33.70
26084, 107, -231, -949, 4130, -233520, 127680, -55, -73, 342, 1016.67, 33.70
26124, -180, -345, -495, -110880, -370090, 16380, -94, -106, 282, 1016.61, 33.70
26164, -982, 210, -537, -253050, -377230, -77350, -123, -162, 262, 1016.60, 33.70
26204, -1163, 921, -769, -114800, 178290, -84490, -108, -201, 313, 1016.59, 33.71
26244, -86, 688, -631, -62370, 289310, 35630, -78, -198, 367, 1016.63, 33.70
26284, 116, 730, -708, 32060, 303800, 133980, -48, -174, 424, 1016.62, 33.71
26324, 445, 270, -774, 180740, 251860, 192640, -45, -129, 459, 1016.61, 33.72
26364, 588, -50, -1005, 170520, 93730, 191030, -36, -90, 472, 1016.61, 33.73
26404, 108, -40, -1036, 52360, -90790, 109620, -40, -70, 450, 1016.63, 33.73
26444, -289, -203, -925, -27650, -172970, -31430, -39, -88, 408, 1016.64, 33.73
26484, -448, -29, -800, -111300, -151830, -169750, -57, -139, 381, 1016.65, 33.74
26524, -190, 553, -999, -147210, -31990, -246050, -70, -193, 394, 1016.64, 33.74
26564, -94, 428, -857, -124320, 80990, -218050, -79, -234, 432, 1016.64, 33.73
26604, 114, 732, -717, -155400, 127960, -69020, -82, -231, 472, 1016.56, 33.74
26644, 294, 979, -606, -118580, 137130, 93100, -58, -202, 504, 1016.56, 33.74
26684, 316, 817, -634, 15610, 140420, 198380, -52, -159, 525, 1016.61, 33.75
26724, 518, 418, -852, 155960, 134750, 255990, -45, -126, 537, 1016.65, 33.76
26764, 422, 28, -985, 184450, 36540, 213290, -39, -105, 523, 1016.68, 33.76
26804, 301, -292, -992, 104930, -87010, 80710, -31, -97, 489, 1016.61, 33.76
26844, -57, -133, -945, 16100, -175700, -61180, -33, -124, 450, 1016.62, 33.77
26884, -86, -111, -918, -21630, -179970, -180320, -52, -180, 420, 1016.59, 33.77
26924, 124, 229, -956, -67620, -114660, -236880, -66, -219, 430, 1016.67, 33.77
26964, -92, 409, -912, -107100, -10080, -207620, -85, -241, 460, 1016.69, 33.77
27004, 81, 557, -800, -118160, 90650, -77070, -81, -241, 502, 1016.69, 33.77
27044, 249, 749, -773, -110670, 133910, 62090, -76, -207, 526, 1016.65, 33.78
27084, 342, 666, -719, -27930, 149100, 153440, -60, -178, 543, 1016.72, 33.79
27124, 674, 506, -874, 85750, 114730, 199220, -55, -157, 532, 1016.68, 33.79
27164, 567, -38, -1018, 147070, -55230, 188160, -40, -127, 465, 1016.67, 33.80
27204, 126, -187, -926, 76230, -263620, 106820, -40, -121, 385, 1016.69, 33.81
27244, -229, -323, -673, -10990, -358330, 15260, -78, -141, 328, 1016.68, 33.80
27284, -569, -112, -611, -122500, -334810, -63700, -90, -186, 318, 1016.68, 33.81
27324, -895, 720, -945, -185850, -152950, -121520, -82, -207, 360, 1016.65, 33.81
27364, -413, 497, -742, -85960, 301840, -22750, -70, -217, 438, 1016.60, 33.82
27404, 374, 611, -723, -42490, 359170, 65730, -48, -214, 505, 1016.63, 33.82
27444, 681, 388, -800, 78610, 304640, 141260, -57, -184, 544, 1016.65, 33.83
27484, 868, -6, -919, 138460, 133630, 169120, -60, -154, 543, 1016.63, 33.83
27524, 615, -217, -1004, 74900, -79940, 108290, -42, -139, 505, 1016.59, 33.83
27564, 256, -242, -933, -27090, -242130, 18060, -33, -144, 451, 1016.67, 33.84
27604, 9, -142, -704, -136080, -342930, -46900, -51, -160, 379, 1016.61, 33.84
27644, -545, 413, -729, -213150, -357770, -83650, -78, -192, 340, 1016.64, 33.83
27684, -895, 694, -808, -157780, -141820, -90580, -79, -204, 372, 1016.66, 33.83
27724, -254, 640, -674, -65100, 178640, -27370, -69, -213, 424, 1016.64, 33.82
27764, 90, 569, -624, -14980, 313950, 56490, -64, -190, 492, 1016.66, 33.82
27804, 310, 598, -674, 31430, 334670, 123760, -57, -169, 544, 1016.64, 33.83
27844, 754, 403, -765, 136500, 277200, 169470, -54, -151, 562, 1016.56, 33.83
27884, 993, -193, -892, 167860, 97580, 167720, -39, -126, 538, 1016.61, 33.85
27924, 507, -258, -921, 34510, -135800, 89600, -37, -126, 495, 1016.64, 33.85
27964, 130, -168, -842, -91980, -245280, -11690, -40, -142, 439, 1016.68, 33.85
28004, -280, 62, -872, -169330, -240170, -101500, -48, -177, 432, 1016.64, 33.85
28044, -431, 570, -897, -189210, -118370, -160160, -57, -205, 462, 1016.67, 33.85
28084, -22, 748, -714, -130550, 100730, -117390, -63, -199, 514, 1016.65, 33.86
28124, 299, 755, -610, -74200, 232190, 6090, -64, -184, 556, 1016.68, 33.85
28164, 585, 780, -613, -8190, 230790, 127820, -67, -153, 574, 1016.68, 33.86
28204, 907, 558, -647, 84630, 121240, 207620, -49, -120, 549, 1016.63, 33.86
28244, 868, 226, -883, 104090, -76650, 199640, -34, -103, 498, 1016.66, 33.87
28284, -11, -8, -897, 58100, -246050, 94150, -33, -117, 429, 1016.64, 33.87
28324, -219, -199, -842, 2310, -252140, -32760, -31, -156, 411, 1016.68, 33.87
28364, -582, -161, -717, -84980, -185780, -148750, -51, -175, 415, 1016.66, 33.87
28404, 68, 721, -1005, -152040, -2730, -203070, -72, -217, 451, 1016.67, 33.86
28444, 111, 635, -837, -101360, 118020, -143010, -63, -220, 496, 1016.67, 33.86
28484, 316, 749, -725, -79030, 178430, 4410, -63, -192, 529, 1016.67, 33.87
28524, 541, 597, -761, 5670, 126140, 229110, -63, -145, 546, 1016.64, 33.87
28564, 439, 553, -1232, 2590, 2730, 176610, -48, -120, 561, 1016.67, 33.88
28604, 292, 125, -1039, 40320, -172970, 9940, -34, -117, 516, 1016.63, 33.89
28644, -53, -88, -799, 15470, -296450, -113190, -40, -132, 448, 1016.62, 33.89
28684, -293, 11, -645, -65100, -307580, -185570, -54, -177, 390, 1016.65, 33.88
28724, -556, 968, -868, -137550, -173320, -195160, -87, -226, 373, 1016.63, 33.88
28764, -243, 644, -728, -54600, 76230, -94570, -82, -228, 403, 1016.62, 33.88
28804, -109, 705, -617, -38920, 225820, 50890, -63, -223, 457, 1016.61, 33.89
28844, 283, 513, -488, 11340, 305340, 146090, -61, -192, 523, 1016.58, 33.90
28884, 812, 372, -869, 57610, 257740, 210490, -57, -157, 558, 1016.56, 33.90
28924, 724, 180, -1185, 62930, 14350, 198870, -45, -127, 528, 1016.57, 33.91
28964, 103, 33, -1053, 10360, -231700, 85960, -34, -117, 463, 1016.64, 33.91
29004, -163, -76, -787, -61880, -319830, -41580, -40, -136, 399, 1016.67, 33.91
29044, -525, -44, -652, -153160, -302610, -132090, -73, -171, 358, 1016.66, 33.91
29084, -553, 1039, -827, -226520, -142240, -158830, -76, -214, 375, 1016.69, 33.91
29124, -364, 883, -607, -99890, 102830, -92330, -66, -217, 420, 1016.63, 33.91
29164, -128, 779, -469, -17500, 283710, 12460, -64, -211, 490, 1016.63, 33.92
29204, 263, 718, -473, 58380, 358820, 102760, -70, -187, 549, 1016.62, 33.93
29244, 739, 430, -647, 161630, 322350, 165200, -64, -172, 576, 1016.58, 33.93
29284, 1095, 38, -897, 179480, 138950, 185010, -54, -138, 556, 1016.62, 33.93
29324, 584, -132, -912, 56000, -136710, 164920, -40, -118, 496, 1016.66, 33.93
29364, 87, -254, -819, -73990, -273490, 80360, -36, -117, 447, 1016.72, 33.94
29404, -200, -9, -811, -201040, -287000, -30660, -46, -144, 388, 1016.66, 33.94
29444, -630, 653, -887, -271250, -191030, -93240, -48, -174, 429, 1016.66, 33.94
29484, -322, 1060, -752, -136920, 75880, -68460, -52, -177, 475, 1016.62, 33.94
29524, 148, 801, -405, 59780, 278950, -54460, -67, -183, 540, 1016.64, 33.95
29564, 489, 582, -471, 141260, 335370, -17010, -72, -189, 567, 1016.66, 33.95
29604, 396, 452, -647, 173950, 261590, 44730, -78, -193, 585, 1016.65, 33.95
29644, 771, 48, -906, 231210, 18830, 105140, -66, -168, 574, 1016.65, 33.96
29684, 566, -67, -974, -11130, -107800, 56910, -64, -163, 547, 1016.67, 33.97
29724, 539, 202, -979, -1540, -105420, 8960, -46, -168, 528, 1016.61, 33.97
29764, 842, -171, -827, 69160, -85330, 9800, -43, -163, 507, 1016.60, 33.97
29804, 348, -277, -850, 29750, -146790, 18620, -45, -153, 472, 1016.61, 33.97
29844, 46, -182, -798, -14840, -150500, -20510, -49, -174, 439, 1016.61, 33.98
29884, -152, 417, -1060, -21700, -109060, -43540, -54, -184, 427, 1016.63, 33.98
29924, -189, 315, -1011, 69440, -18900, -36470, -55, -189, 426, 1016.66, 33.98
29964, 53, 21, -834, 183750, 86170, -85890, -63, -201, 432, 1016.67, 33.98
30004, 222, -254, -664, 230020, 150150, -164010, -82, -225, 445, 1016.65, 33.98
30044, 688, -464, -583, 204680, 200410, -215180, -94, -264, 462, 1016.59, 33.98
30084, 1144, -473, -453, 100380, 136920, -144200, -99, -265, 462, 1016.63, 33.99
30124, 699, -412, -617, -73710, -12810, 68740, -84, -238, 478, 1016.64, 33.98
30164, 534, -326, -792, -194040, -64540, 154700, -63, -217, 477, 1016.66, 33.99
30204, 855, -55, -473, -224000, -145600, 168420, -54, -181, 448, 1016.68, 33.99
30244, -396, 383, -1249, -136920, -235620, 159670, -40, -171, 423, 1016.63, 33.99
30284, -496, -76, -1034, 74340, -47110, 2100, -64, -187, 451, 1016.61, 34.00
30324, 409, -228, -824, 170380, 166530, -161700, -67, -228, 468, 1016.62, 34.00
30364, 1169, -707, -474, 173110, 168140, -201880, -70, -228, 460, 1016.59, 34.00
30404, 1190, -428, -363, -54250, -12460, 4690, -60, -189, 453, 1016.64, 34.00
30444, 260, -59, -584, -268590, -211820, 227010, -55, -156, 424, 1016.64, 34.00
30484, -852, 619, -1285, -302540, -211400, 183750, -43, -159, 430, 1016.63, 34.00
30524, -327, 536, -1186, -60270, 2170, 27930, -52, -180, 451, 1016.65, 34.01
30564, 20, 12, -777, 225190, 168350, -92820, -60, -217, 481, 1016.64, 34.01
30604, 789, -479, -546, 298550, 224280, -195440, -58, -213, 490, 1016.65, 34.02
30644, 1748, -901, 29, 53270, 99400, -37940, -42, -150, 457, 1016.64, 34.01
30684, 798, -135, -112, -374290, -216160, 252980, -42, -130, 411, 1016.63, 34.00
30724, -1008, 1071, -1279, -466270, -329070, 187250, -34, -136, 424, 1016.66, 34.00
30764, -713, 1203, -1325, -108990, -35770, 10850, -49, -144, 472, 1016.67, 34.00
30804, 39, 92, -761, 357420, 257390, -138950, -55, -184, 505, 1016.68, 34.02
30844, 1530, -852, 66, 52360, 98630, -41160, -57, -171, 508, 1016.68, 34.02
30884, 816, -52, -154, -345590, -209090, 144620, -40, -142, 472, 1016.63, 34.02
30924, -948, 971, -1083, -445480, -366800, 117950, -48, -117, 414, 1016.57, 34.01
30964, -746, 1319, -1331, -158270, -97510, 12040, -39, -120, 400, 1016.62, 34.02
31004, -379, 568, -818, 279300, 186970, -38360, -31, -127, 451, 1016.60, 34.02
31044, 635, -552, -420, 427840, 302960, -138740, -43, -156, 495, 1016.68, 34.03
31084, 1677, -1046, 145, 110460, 163450, -80150, -54, -175, 511, 1016.68, 34.03
31124, 806, 272, -194, -381500, -207550, 110810, -36, -132, 462, 1016.64, 34.02
31164, -1144, 1177, -1296, -394520, -392140, 73360, -42, -130, 400, 1016.68, 34.02
31204, -743, 1181, -1388, -45780, -51450, 1890, -37, -117, 417, 1016.61, 34.02
31244, -47, 224, -688, 339780, 229600, -53690, -42, -136, 472, 1016.63, 34.04
31284, 879, -763, -439, 386120, 272090, -137200, -46, -157, 496, 1016.61, 34.04
31324, 1549, -654, 172, 4200, 83160, -51380, -42, -147, 495, 1016.66, 34.04
31364, 94, 633, -557, -382760, -277830, 109900, -40, -124, 421, 1016.65, 34.04
31404, -926, 655, -1355, -246750, -286930, 51310, -39, -132, 415, 1016.61, 34.04
31444, -322, 729, -1185, 42980, 54950, -2380, -36, -121, 445, 1016.60, 34.05
31484, 25, 121, -815, 278040, 198800, -65520, -42, -148, 475, 1016.62, 34.05
31524, 1007, -775, -341, 279930, 234430, -125160, -43, -169, 498, 1016.64, 34.06
31564, 1646, -314, 90, -116410, 13720, 910, -40, -138, 454, 1016.66, 34.06
31604, -853, 947, -1195, -354550, -357980, 116060, -39, -123, 412, 1016.65, 34.07
31644, -507, 422, -1096, -77910, -163800, 29260, -42, -127, 427, 1016.63, 34.07
31684, -193, 508, -1151, 110600, 78050, -23870, -42, -129, 442, 1016.69, 34.07
31724, 89, -95, -755, 295540, 171080, -100520, -46, -163, 477, 1016.65, 34.08
31764, 1177, -830, -224, 194390, 190330, -118720, -40, -157, 475, 1016.60, 34.08
31804, 1280, -137, -32, -221830, -76510, 65590, -34, -129, 411, 1016.63, 34.08
31844, -1196, 978, -1386, -353640, -329490, 132440, -42, -127, 403, 1016.64, 34.08
31884, -327, 686, -1216, -95130, -66780, 29820, -37, -117, 418, 1016.64, 34.09
31924, -91, 380, -1055, 165410, 100450, -31290, -40, -141, 448, 1016.66, 34.09
31964, 128, -96, -746, 196560, 156030, -106330, -48, -157, 475, 1016.66, 34.11
32004, 1189, -275, -122, -165270, -72870, 45290, -34, -147, 448, 1016.63, 34.11
32044, -856, 760, -1148, -360570, -311780, 129850, -45, -123, 396, 1016.64, 34.10
32084, -634, 979, -1428, -148470, -108640, 41790, -39, -124, 397, 1016.63, 34.11
32124, -324, 403, -1085, 196350, 117810, -40250, -40, -120, 421, 1016.58, 34.11
32164, 165, -165, -664, 339360, 226800, -135940, -37, -151, 465, 1016.60, 34.12
32204, 1236, -797, -208, 195930, 213220, -131950, -42, -175, 484, 1016.68, 34.13
32244, 1527, -354, 176, -184310, -73080, 49490, -37, -138, 445, 1016.63, 34.12
32284, -939, 899, -1042, -392560, -398440, 153160, -39, -120, 384, 1016.65, 34.12
32324, -752, 946, -1434, -154420, -160230, 42630, -40, -120, 390, 1016.61, 34.12
32364, -315, 328, -1072, 179830, 105560, -39830, -36, -133, 414, 1016.65, 34.14
32404, 85, -163, -778, 298200, 206570, -111370, -40, -157, 459, 1016.64, 34.14
32444, 1022, -667, -327, 185290, 210280, -119210, -45, -163, 478, 1016.63, 34.14
32484, 1139, -211, -208, -145110, -35070, 25970, -36, -135, 423, 1016.66, 34.14
32524, -623, 618, -1046, -325990, -307160, 127890, -43, -138, 388, 1016.60, 34.14
32564, -671, 879, -1419, -141820, -149520, 49490, -43, -129, 400, 1016.63, 34.14
32604, -359, 352, -1110, 180460, 93030, -39200, -37, -144, 436, 1016.60, 34.15
32644, 101, -244, -767, 321440, 209510, -132160, -43, -163, 468, 1016.61, 34.16
32684, 1056, -712, -256, 200690, 217350, -140420, -51, -160, 469, 1016.64, 34.15
32724, 1714, -519, 319, -168140, -25690, 33460, -43, -132, 403, 1016.62, 34.15
32764, -924, 902, -996, -426720, -393260, 169960, -45, -127, 381, 1016.64, 34.15
32804, -907, 1160, -1497, -183260, -192360, 57120, -45, -121, 393, 1016.58, 34.16
32844, -360, 305, -1028, 202440, 110880, -46340, -45, -142, 432, 1016.54, 34.16
32884, 171, -295, -735, 316470, 217280, -118790, -43, -163, 459, 1016.56, 34.18
32924, 1270, -732, -164, 140000, 181860, -104790, -33, -132, 432, 1016.59, 34.17
32964, 733, -27, -293, -224350, -112840, 69160, -37, -130, 375, 1016.55, 34.17
33004, -697, 697, -997, -368130, -318990, 136920, -46, -133, 376, 1016.57, 34.17
33044, -698, 1124, -1444, -137760, -97300, 36190, -45, -124, 409, 1016.61, 34.18
33084, -397, 332, -1023, 251370, 133140, -50750, -33, -145, 453, 1016.58, 34.19
33124, 258, -347, -636, 126350, 182420, -100940, -40, -163, 469, 1016.59, 34.18
33164, 898, -342, -38, -255570, -148610, 85400, -31, -138, 417, 1016.61, 34.19
33204, -1202, 1051, -906, -493290, -343000, 153440, -39, -133, 381, 1016.60, 34.18
33244, -570, 1726, -1573, -221130, -51030, 33320, -37, -126, 399, 1016.60, 34.18
33284, -382, 193, -751, 392350, 169470, -40530, -31, -133, 442, 1016.60, 34.18
33324, 390, -495, -552, 451920, 267260, -124110, -37, -150, 486, 1016.52, 34.18
33364, 1432, -784, 43, 137620, 186200, -104300, -36, -162, 489, 1016.61, 34.19
33404, 890, -268, 47, -287630, -148610, 55790, -39, -139, 424, 1016.59, 34.18
33444, -943, 1160, -1373, -418110, -305340, 88900, -43, -130, 418, 1016.63, 34.18
33484, -250, 727, -1154, -36680, -46760, -210, -42, -129, 408, 1016.64, 34.19
33524, -128, 170, -1071, 274610, 105910, -32130, -30, -138, 433, 1016.60, 34.20
33564, 430, -356, -614, 345940, 159460, -139370, -45, -166, 453, 1016.60, 34.20
33604, 1244, -691, -94, 127890, 88410, -113260, -36, -166, 466, 1016.65, 34.21
33644, 394, -54, -290, -299180, -183610, 110600, -33, -148, 408, 1016.65, 34.21
33684, -726, 1118, -1391, -358330, -236670, 97720, -46, -147, 402, 1016.60, 34.21
33724, -165, 424, -992, -20300, -11970, -15540, -42, -150, 411, 1016.58, 34.22
33764, -341, 414, -1129, 154770, 76510, -26950, -39, -153, 415, 1016.60, 34.23
33804, 302, -178, -753, 275450, 173530, -108500, -33, -177, 447, 1016.63, 34.23
33844, 1011, -692, -374, 154630, 143850, -100800, -43, -175, 465, 1016.63, 34.24
33884, 642, -419, -591, -189000, -77840, 51590, -37, -160, 441, 1016.62, 34.24
33924, -453, 774, -1177, -321650, -155750, 53130, -46, -172, 438, 1016.58, 34.24
33964, -171, 576, -1107, -68460, -51800, -8820, -45, -172, 427, 1016.62, 34.24
34004, -358, 492, -1103, 136360, 49000, -21210, -45, -183, 445, 1016.60, 34.25
34044, 11, -37, -823, 258930, 176190, -92820, -61, -202, 480, 1016.66, 34.25
34084, 911, -555, -497, 201670, 240310, -111510, -58, -213, 502, 1016.62, 34.26
34124, 1879, -637, 250, -57190, 49770, -17360, -49, -187, 463, 1016.61, 34.25
34164, -367, 260, -766, -392560, -316120, 84280, -52, -196, 454, 1016.62, 34.24
34204, -770, 1323, -1287, -327040, -169120, 7490, -52, -192, 451, 1016.67, 34.25
34244, -308, 673, -1002, 151900, 42770, -18130, -49, -205, 460, 1016.68, 34.25
34284, 177, -172, -538, 238070, 211680, -114590, -67, -226, 489, 1016.66, 34.25
34324, 1589, -392, -64, -18060, 40810, -23870, -67, -228, 504, 1016.64, 34.26
34364, -327, 286, -999, -298130, -252700, 82320, -51, -201, 474, 1016.65, 34.25
34404, -196, 669, -1010, -206080, -144690, 16450, -54, -207, 460, 1016.65, 34.24
34444, -321, 611, -1087, 95270, 9030, -23730, -54, -213, 468, 1016.61, 34.25
34484, 12, 24, -775, 236530, 140770, -85470, -66, -229, 465, 1016.63, 34.26
34524, 743, -364, -588, 251370, 209790, -155820, -96, -262, 480, 1016.62, 34.26
34564, 1519, -380, -300, 101150, 97230, -94640, -87, -271, 475, 1016.57, 34.27
34604, 766, -428, -496, -178710, -198730, 89880, -70, -232, 454, 1016.61, 34.27
34644, -485, 869, -1096, -301210, -230230, 85750, -72, -244, 462, 1016.62, 34.26
34684, -197, 406, -1039, -26530, -47390, -20930, -85, -247, 448, 1016.61, 34.26
34724, -292, 282, -1000, 91560, 65520, -43260, -90, -267, 465, 1016.61, 34.27
34764, 418, -140, -701, 174930, 208810, -89320, -100, -273, 472, 1016.64, 34.27
34804, 1234, -298, -476, 145670, 187950, -120190, -102, -288, 480, 1016.61, 34.28
34844, 178, -344, -928, 3780, 25970, -29540, -115, -289, 495, 1016.61, 34.28
34884, 457, -17, -722, -95480, -27930, -56420, -129, -304, 505, 1016.64, 34.28
34924, 394, 156, -829, -124040, -100030, -113540, -147, -315, 492, 1016.59, 34.29
34964, 275, 406, -1054, -106610, -118580, -79520, -148, -315, 484, 1016.61, 34.29
35004, 132, 516, -1077, -30380, -90930, 7700, -130, -313, 477, 1016.62, 34.29
35044, 95, 55, -941, -36610, -103670, 90020, -105, -273, 472, 1016.69, 34.30
35084, -291, 391, -972, -146720, -150990, 145040, -85, -256, 474, 1016.65, 34.30
35124, -378, 701, -1065, -75040, -61740, 146370, -79, -237, 483, 1016.60, 34.31
35164, -86, 328, -861, 127400, 184170, 78750, -90, -243, 528, 1016.66, 34.30
35204, 1051, -136, -525, 255290, 347620, -33530, -105, -264, 538, 1016.66, 34.30
35244, 1747, -212, -230, 107310, 164570, -25200, -76, -231, 499, 1016.65, 34.30
35284, 1117, 544, -128, -172760, -230790, 125230, -58, -199, 418, 1016.64, 34.30
35324, -943, 418, -829, -193480, -491960, 162750, -61, -198, 441, 1016.61, 34.30
35364, -1521, 580, -1533, -102620, -143290, 40460, -70, -217, 514, 1016.60, 34.31
35404, -131, 381, -402, 121520, 441840, -128870, -108, -256, 555, 1016.57, 34.31
35444, 1558, 175, -322, 116340, 17150, 21560, -85, -226, 516, 1016.61, 34.31
35484, 609, 46, -568, -3570, -314370, 176610, -63, -196, 456, 1016.62, 34.30
35524, -447, 142, -962, -73290, -408590, 224910, -49, -156, 370, 1016.61, 34.30
35564, -1821, 95, -1416, -73220, -231490, 157920, -45, -145, 385, 1016.63, 34.31
35604, -557, 565, -695, 16310, 291760, -89740, -66, -193, 483, 1016.59, 34.31
35644, 703, 637, -19, 137900, 509460, -275100, -109, -256, 550, 1016.57, 34.31
35684, 1990, -350, -20, 111510, 277830, -174300, -91, -235, 514, 1016.58, 34.31
35724, 948, 516, 108, -81760, -417760, 243670, -49, -154, 396, 1016.62, 34.31
35764, -1378, 407, -806, -126770, -650300, 345730, -67, -121, 321, 1016.63, 34.31
35804, -1998, 218, -1489, -86660, -220500, 124530, -48, -169, 394, 1016.64, 34.31
35844, -931, 972, -68, 57400, 495530, -218540, -97, -244, 529, 1016.62, 34.31
35884, 1169, 705, 500, 249410, 754040, -480340, -181, -318, 573, 1016.57, 34.31
35924, 1998, -60, 387, 115360, 365890, -291620, -157, -306, 529, 1016.58, 34.32
35964, 1096, 1520, 1182, -189700, -540400, 405230, -58, -196, 442, 1016.56, 34.32
36004, -1606, 959, 121, -220500, -946960, 520520, -82, -121, 288, 1016.61, 34.33
36044, -1998, 361, -1524, -154070, -561120, 301280, -103, -106, 274, 1016.59, 34.32
36084, -1743, 1153, -346, 70, 312410, -30240, -46, -138, 415, 1016.55, 34.33
36124, 526, 885, 946, 336350, 862470, -307440, -82, -214, 543, 1016.57, 34.33
36164, 1998, -884, 565, 248430, 506170, -232470, -58, -186, 513, 1016.59, 34.33
36204, 1113, 1063, 1420, -301770, -583800, 352590, -72, -94, 313, 1016.60, 34.32
36244, -1723, 1714, 513, -441280, -1043770, 502180, -184, -78, 199, 1016.58, 34.33
36284, -1998, 1652, -1184, -188440, -412580, 170590, -100, -76, 273, 1016.59, 34.32
36324, -1133, 1397, 844, 306880, 658700, -299040, -39, -148, 463, 1016.65, 34.33
36364, 1537, -35, 948, 452130, 898800, -490210, -63, -183, 502, 1016.66, 34.34
36404, 1870, -125, 584, 6370, 90440, -16380, -63, -88, 343, 1016.63, 34.33
36444, -891, 1228, 354, -357700, -785400, 473060, -136, -48, 231, 1016.66, 34.33
36484, -1998, 1178, -1337, -266770, -551460, 307020, -87, -69, 289, 1016.61, 34.34
36524, -1293, 1154, -311, 126000, 276500, -141960, -36, -111, 420, 1016.61, 34.34
36564, 1047, 151, 163, 92260, 169540, -55860, -43, -120, 438, 1016.64, 34.34
36604, -628, 799, -283, -323680, -581000, 399280, -81, -42, 295, 1016.65, 34.34
36644, -1998, 1276, -1310, -238630, -396690, 198240, -127, -39, 249, 1016.64, 34.34
36684, -828, 1003, -103, 186550, 384300, -225400, -60, -67, 351, 1016.69, 34.35
36724, 1738, -762, -228, 315980, 524300, -307720, -31, -115, 438, 1016.68, 34.35
36764, 1046, -88, -513, -91490, -73290, 80640, -45, -72, 375, 1016.63, 34.34
36804, -1374, 616, -1189, -241290, -329630, 183050, -64, -64, 328, 1016.61, 34.34
36844, -487, 407, -1020, -27790, 46340, -34440, -48, -73, 370, 1016.62, 34.35
36884, 611, -190, -853, 62790, 163450, -73290, -36, -85, 384, 1016.63, 34.35
36924, 207, 106, -905, -66850, -10360, -7000, -55, -87, 370, 1016.63, 34.36
36964, -300, 395, -936, -96390, -74200, -9380, -46, -97, 366, 1016.64, 34.35
37004, -106, 363, -862, -42560, -18550, -29330, -48, -106, 363, 1016.62, 34.36
37044, -134, 244, -949, -25060, -21140, -16660, -55, -121, 360, 1016.57, 34.36
37084, -111, 286, -908, -42700, -26390, -22400, -54, -121, 349, 1016.59, 34.37
37124, -191, 383, -879, -50540, -43330, -13930, -60, -133, 348, 1016.57, 34.38
37164, -322, 381, -934, -38780, -46830, 840, -63, -135, 339, 1016.60, 34.39
37204, -222, 388, -901, -29330, -14140, 1260, -63, -139, 340, 1016.59, 34.39
37244, -145, 417, -856, -31640, -9030, -560, -57, -139, 334, 1016.59, 34.40
37284, -269, 437, -891, -26390, -27930, 6790, -70, -142, 322, 1016.64, 34.41
37324, -288, 454, -874, -19250, -12320, 3080, -69, -139, 342, 1016.61, 34.41
37364, -190, 408, -845, -5600, 3220, 1820, -55, -133, 328, 1016.59, 34.42
37404, -282, 441, -861, -7280, -8820, 5320, -60, -139, 339, 1016.63, 34.42
37444, -274, 446, -859, -2660, 2590, 1680, -67, -133, 340, 1016.63, 34.44
37484, -185, 407, -862, -1190, 8960, 4200, -66, -133, 342, 1016.59, 34.43
37524, -241, 441, -863, -10710, -3850, 10220, -63, -136, 337, 1016.62, 34.44
37564, -222, 439, -852, -10850, 2380, 6790, -67, -141, 330, 1016.61, 34.45
37604, -188, 439, -847, -14840, 5600, 5250, -64, -135, 339, 1016.57, 34.45
37644, -206, 469, -846, -23100, -2660, 10010, -55, -135, 343, 1016.60, 34.45
37684, -249, 498, -861, -24850, -2940, 10290, -61, -136, 348, 1016.59, 34.46
37724, -166, 495, -838, -27580, -840, 8190, -64, -135, 351, 1016.58, 34.46
37764, -205, 560, -807, -22470, -3850, 7490, -60, -130, 349, 1016.65, 34.46
37804, -179, 535, -775, -11060, -2100, 2730, -61, -139, 349, 1016.60, 34.47
37844, -237, 557, -810, -13440, -2450, 4830, -69, -141, 345, 1016.63, 34.47
37884, -157, 546, -791, -10570, 5460, 5180, -64, -133, 343, 1016.62, 34.47
37924, -206, 548, -795, -6650, 5530, 4060, -57, -136, 343, 1016.63, 34.48
37964, -163, 569, -780, -7560, 5530, 1470, -63, -129, 351, 1016.68, 34.49
38004, -204, 570, -797, -5880, 3850, 1400, -57, -133, 351, 1016.60, 34.50
38044, -185, 537, -808, -3850, 3290, 2030, -55, -126, 345, 1016.62, 34.49
38084, -179, 543, -791, -11340, 5320, 5740, -51, -141, 355, 1016.63, 34.50
38124, -172, 566, -792, -19180, 2870, 8890, -52, -136, 354, 1016.60, 34.50
38164, -186, 564, -788, -22470, 3360, 10080, -55, -142, 354, 1016.63, 34.51
38204, -185, 586, -784, -33530, 6860, 12530, -51, -139, 358, 1016.61, 34.51
38244, -130, 624, -749, -46270, 9030, 17290, -52, -142, 367, 1016.63, 34.52
38284, -134, 661, -718, -55580, 4060, 17990, -52, -144, 372, 1016.63, 34.52
38324, -122, 714, -656, -59990, 2170, 17220, -63, -145, 369, 1016.63, 34.52
38364, -107, 736, -632, -55930, 5390, 14070, -57, -144, 376, 1016.65, 34.53
38404, -75, 778, -600, -43890, 7840, 9170, -64, -154, 382, 1016.67, 34.54
38444, -105, 763, -619, -24570, 910, 5250, -52, -147, 373, 1016.68, 34.55
38484, -93, 777, -600, -12670, 280, 3360, -51, -145, 378, 1016.63, 34.55
38524, -103, 760, -603, -3990, -1260, 2310, -64, -145, 375, 1016.59, 34.56
38564, -105, 758, -619, -2170, 1400, 840, -55, -144, 382, 1016.61, 34.56
38604, -97, 764, -612, -140, 2870, -140, -51, -141, 375, 1016.68, 34.57
38644, -97, 749, -629, 2450, 3080, -210, -55, -145, 382, 1016.62, 34.57
38684, -100, 760, -621, -210, 1890, 1050, -52, -147, 382, 1016.64, 34.58
38724, -103, 757, -628, -1050, 5390, 210, -54, -139, 385, 1016.64, 34.58
38764, -77, 754, -624, 1330, 6790, 140, -52, -147, 390, 1016.64, 34.59
38804, -97, 765, -617, 1960, 2800, 70, -55, -138, 379, 1016.61, 34.60
38844, -83, 765, -606, 4270, 6160, -1050, -48, -147, 391, 1016.62, 34.61
38884, -78, 762, -615, 24570, 5460, -2450, -51, -144, 387, 1016.61, 34.61
38924, -76, 723, -661, 37940, 8960, -3150, -48, -142, 388, 1016.65, 34.62
38964, -65, 709, -658, 42280, 7980, 350, -49, -129, 388, 1016.66, 34.62
39004, -68, 693, -689, 45990, 7210, 6160, -55, -138, 388, 1016.65, 34.62
39044, -61, 641, -734, 53830, 9380, 7980, -48, -126, 391, 1016.62, 34.63
39084, -53, 612, -767, 52150, 6580, 7630, -48, -130, 384, 1016.64, 34.64
39124, -67, 599, -775, 43190, 1680, 10360, -46, -121, 384, 1016.60, 34.65
39164, -70, 641, -803, 39760, -4970, 13160, -43, -117, 378, 1016.61, 34.65
39204, -127, 560, -834, 54040, -1890, 20440, -48, -103, 381, 1016.60, 34.65
39244, 14, 510, -791, 49210, 3780, 35560, -48, -97, 385, 1016.57, 34.67
39284, -3, 465, -864, 30030, -12810, 44310, -48, -82, 381, 1016.61, 34.66
39324, 0, 455, -868, 16520, -20440, 39060, -42, -79, 372, 1016.63, 34.67
39364, 0, 472, -851, 6790, -22120, 30730, -54, -78, 357, 1016.61, 34.68
39404, -86, 455, -865, 700, -21420, 27720, -57, -70, 367, 1016.62, 34.68
39444, 0, 484, -853, -2800, -7210, 23520, -54, -69, 367, 1016.62, 34.68
39484, -3, 474, -867, 4550, -3710, 13300, -57, -66, 367, 1016.62, 34.68
39524, -4, 490, -835, 420, -1610, 5880, -49, -64, 361, 1016.61, 34.69
39564, -53, 506, -853, -4200, 0, 4200, -54, -58, 369, 1016.62, 34.69
39604, -13, 502, -841, -2870, 1120, 4270, -51, -64, 364, 1016.62, 34.71
39644, -20, 488, -865, -2100, 1750, 2590, -57, -66, 369, 1016.62, 34.71
39684, 9, 476, -882, -4760, 630, 2240, -46, -61, 354, 1016.60, 34.71
39724, -21, 510, -851, -8470, -5600, 1960, -52, -58, 358, 1016.58, 34.72
39764, -22, 516, -848, -10360, 630, -420, -48, -63, 364, 1016.56, 34.72
39804, -4, 522, -836, -7210, 2520, 140, -49, -61, 351, 1016.60, 34.73
39844, -23, 512, -832, -4270, -4270, 910, -52, -64, 360, 1016.58, 34.73
39884, -5, 512, -836, -5880, 4340, 210, -49, -69, 361, 1016.67, 34.73
39924, -8, 526, -830, -4970, 3570, -210, -51, -63, 364, 1016.60, 34.74
39964, -5, 520, -825, -4690, -1190, 1190, -55, -69, 364, 1016.59, 34.75
40004, -19, 523, -828, -5040, -1330, 0, -55, -70, 370, 1016.60, 34.76
