T [ms],AccX [mg],AccY [mg],AccZ [mg],GyroX [mdps],GyroY [mdps],GyroZ [mdps],MagX [mgauss],MagY [mgauss],MagZ [mgauss],P [mB],T [°C],
4541, 97, -185, -960, 9450, 2100, -1120, -247, -405, -1, 1010.97, 32.90
4581, 106, -254, -941, 10570, 4690, 2030, -258, -409, -4, 1011.01, 32.91
4621, 104, -256, -940, 4480, 700, 1120, -253, -405, -1, 1011.00, 32.91
4661, 95, -246, -944, 420, 1680, 910, -256, -399, -7, 1011.03, 32.93
4701, 97, -232, -934, -1890, 3430, 700, -259, -403, -4, 1011.01, 32.93
4741, 97, -228, -943, -1260, 1890, 70, -255, -411, -9, 1011.01, 32.93
4781, 98, -225, -952, -910, 2100, 490, -253, -412, -10, 1010.98, 32.94
4821, 100, -215, -946, 2100, 3850, 350, -258, -408, -1, 1010.99, 32.94
4861, 100, -222, -960, 6510, 4410, -980, -262, -411, -6, 1011.00, 32.95
4901, 93, -252, -952, 6230, 5530, 910, -255, -403, 7, 1011.08, 32.95
4941, 108, -224, -956, 1890, 10430, 4690, -258, -406, -1, 1011.04, 32.95
4981, 93, -186, -950, -140, 10990, 7210, -256, -399, 13, 1011.02, 32.97
5021, 107, -244, -930, 3010, 10920, 10920, -255, -400, 3, 1011.00, 32.96
5061, 139, -208, -917, 210, 11410, 12600, -255, -399, 19, 1011.01, 32.98
5101, 182, -227, -851, -3570, 11690, 20790, -252, -391, 21, 1010.94, 32.98
5141, 176, -212, -868, -27440, 6860, 30520, -243, -385, 9, 1010.98, 32.98
5181, 137, -166, -944, -42840, 3150, 31080, -250, -387, 0, 1011.00, 32.99
5221, 111, -70, -973, -41440, -6020, 280, -252, -382, 7, 1010.95, 32.99
5261, 124, -93, -954, -32200, 8330, 35980, -243, -384, 10, 1010.99, 32.99
5301, 38, -211, -991, 4550, -2520, 35070, -243, -372, 19, 1010.99, 33.00
5341, 66, -397, -874, 35070, -5390, 2590, -259, -373, 16, 1010.97, 33.01
5381, 102, -234, -977, -20370, -4130, 1680, -261, -376, 7, 1010.91, 33.01
5421, 81, -118, -974, -44170, -8960, 1820, -250, -367, 6, 1010.98, 33.02
5461, 58, -98, -1005, -17990, -14770, -980, -244, -367, 1, 1011.00, 33.03
5501, 0, -179, -942, 10010, -5810, -2940, -244, -378, 12, 1011.02, 33.03
5541, 152, -81, -982, -4970, 18970, -7420, -252, -370, 7, 1011.01, 33.04
5581, 163, 3, -989, -6090, 21280, -11130, -255, -385, 12, 1010.96, 33.04
5621, 225, -146, -1004, 8820, 21140, -19180, -250, -387, 12, 1010.94, 33.05
5661, 175, -162, -995, 5250, 10010, -13440, -259, -390, 25, 1010.91, 33.06
5701, 178, -148, -972, 3990, 280, -8470, -246, -393, 15, 1010.94, 33.06
5741, 160, -111, -979, 5390, -15540, -6860, -255, -391, 1, 1010.96, 33.06
5781, 115, -113, -970, 15260, -31710, -5320, -250, -397, -3, 1010.93, 33.07
5821, 89, -163, -984, 25130, -37240, 560, -252, -384, -12, 1010.94, 33.07
5861, 22, -108, -987, 17990, -41020, 2170, -253, -384, -28, 1010.98, 33.08
5901, -50, -216, -954, 20580, -28840, -6020, -256, -400, -28, 1011.00, 33.09
5941, 25, -199, -962, 910, -8190, -13510, -258, -394, -33, 1010.99, 33.09
5981, 4, -191, -946, -10010, -4550, -10220, -258, -397, -30, 1010.95, 33.09
6021, 9, -169, -933, -11620, -2030, -3290, -253, -393, -28, 1010.95, 33.10
6061, -27, -138, -937, -5740, -3710, -280, -255, -396, -27, 1010.97, 33.10
6101, -14, -203, -937, 4060, 560, -1750, -256, -396, -25, 1010.97, 33.10
6141, 30, -154, -988, -4480, 5250, -2940, -253, -400, -25, 1010.96, 33.11
6181, 31, -199, -989, -3360, 6860, -630, -261, -399, -30, 1011.00, 33.12
6221, 84, -112, -1008, -14840, 7700, 700, -264, -406, -31, 1010.94, 33.12
6261, 46, -93, -995, -8960, -1820, -2100, -246, -396, -31, 1010.90, 33.12
6301, 36, -148, -958, 3570, -2590, -3570, -255, -409, -24, 1010.97, 33.13
6341, 31, -110, -960, 210, -280, -5530, -258, -403, -18, 1011.03, 33.14
6381, 23, -139, -921, 840, 1400, -8750, -261, -414, -24, 1010.95, 33.14
6421, 25, -92, -942, -4410, 3570, -9170, -265, -411, -27, 1011.00, 33.15
6461, 24, -136, -950, -350, 3290, -12250, -256, -411, -24, 1011.00, 33.16
6501, 36, -121, -957, -4970, 4900, -12250, -261, -415, -30, 1011.05, 33.15
6541, 37, -109, -965, -4060, 3080, -11760, -258, -411, -19, 1011.07, 33.16
6581, 20, -131, -968, 2030, -980, -11480, -264, -420, -33, 1011.03, 33.16
6621, 21, -133, -1000, 3780, -3850, -11620, -268, -420, -39, 1011.05, 33.16
6661, 6, -170, -998, 7210, -8190, -10150, -268, -427, -34, 1011.01, 33.17
6701, -1, -155, -1004, 280, -7840, -9730, -255, -415, -39, 1010.97, 33.17
6741, 26, -163, -998, -630, -6510, -9730, -268, -423, -33, 1011.00, 33.18
6781, 19, -161, -966, -1050, -7070, -5880, -265, -429, -30, 1011.05, 33.18
6821, 19, -142, -948, -5390, -1470, -6160, -271, -432, -34, 1011.05, 33.18
6861, 35, -147, -953, -4830, 4830, -7210, -267, -438, -34, 1011.05, 33.18
6901, 41, -127, -970, -6720, 5180, -8680, -277, -444, -33, 1011.03, 33.18
6941, 33, -138, -969, -4970, 4270, -9590, -267, -432, -31, 1011.04, 33.17
6981, 33, -126, -974, -420, 1400, -7280, -271, -441, -34, 1011.06, 33.18
7021, 24, -95, -993, -910, 560, -9590, -273, -450, -30, 1011.05, 33.18
7061, 47, -137, -980, 1750, -1820, -10710, -267, -444, -39, 1011.07, 33.17
7101, 40, -90, -978, -7210, -1120, -11060, -273, -441, -34, 1010.99, 33.16
7141, 36, -109, -987, -5040, -210, -12810, -285, -448, -37, 1010.98, 33.17
7181, 20, -132, -1000, -2590, -1610, -13300, -273, -450, -28, 1010.99, 33.16
7221, 21, -125, -931, 10150, -14420, -10920, -276, -451, -43, 1011.02, 33.17
7261, -57, -128, -851, 12950, -14210, -8050, -277, -451, -40, 1010.93, 33.17
7301, 34, -106, -967, -7070, 13160, -10640, -276, -462, -31, 1010.92, 33.17
7341, 11, -282, -984, -12460, 11550, -14280, -280, -454, -31, 1010.96, 33.17
7381, -34, -146, -1030, -41720, 1610, 1120, -280, -457, -40, 1010.97, 33.18
7421, 45, 53, -899, -45010, 7560, 7700, -277, -466, -19, 1010.96, 33.18
7461, 36, 91, -954, -21770, 16310, -9380, -282, -469, -22, 1010.98, 33.19
7501, 69, -46, -968, -1470, 11970, -15260, -280, -468, -21, 1010.99, 33.19
7541, 52, -35, -997, 6370, -2450, -11270, -282, -475, -18, 1010.94, 33.19
7581, 22, 40, -1024, 27440, -12880, -4900, -286, -465, -31, 1010.99, 33.21
7621, 28, -207, -964, 60620, -27020, -7560, -294, -474, -46, 1010.98, 33.21
7661, -32, -172, -950, 25690, -22890, -10710, -289, -474, -39, 1011.02, 33.22
7701, -22, 0, -961, -10850, -4900, -5740, -285, -474, -51, 1011.02, 33.23
7741, -10, -70, -941, 16520, 8610, -5670, -286, -471, -55, 1010.97, 33.23
7781, -32, -253, -986, 28840, 5880, -7420, -286, -469, -45, 1010.97, 33.23
7821, 22, -168, -972, -770, 1470, -280, -292, -472, -48, 1011.00, 33.25
7861, 283, -16, -1062, -14910, 6230, -1330, -286, -468, -52, 1011.04, 33.25
7901, -196, -202, -868, 6230, -13230, -4270, -289, -474, -51, 1011.05, 33.25
7941, 32, -172, -979, -5040, 12040, -7770, -289, -477, -48, 1011.02, 33.26
7981, 7, -153, -994, -6580, -2310, -4480, -289, -477, -45, 1011.03, 33.26
8021, 48, -73, -1021, -18270, -1260, -770, -289, -478, -42, 1011.03, 33.27
8061, 7, -81, -1006, -4060, -12740, 4690, -279, -471, -51, 1011.02, 33.27
8101, -28, -122, -937, 14070, -19110, 9800, -294, -477, -54, 1010.99, 33.28
8141, -64, -69, -895, 2870, -9520, 6510, -291, -474, -61, 1010.99, 33.28
8181, -29, -134, -910, 11060, 1820, 11760, -292, -477, -57, 1010.96, 33.29
8221, -48, -203, -1008, 5670, -4620, 2030, -294, -475, -64, 1011.00, 33.30
8261, -42, -126, -938, -7700, -10780, 1330, -282, -474, -63, 1010.98, 33.31
8301, -93, -170, -997, -10150, -2590, -210, -297, -472, -57, 1010.96, 33.31
8341, -40, -117, -960, -10850, 7630, 3780, -291, -478, -51, 1011.00, 33.32
8381, -32, -70, -977, -8330, 11760, 7000, -292, -486, -52, 1010.99, 33.32
8421, -33, -123, -994, -15750, 11620, 3850, -294, -483, -39, 1010.96, 33.33
8461, -25, -82, -1029, -23240, 14560, 6510, -292, -475, -45, 1010.99, 33.33
8501, 11, -8, -996, -12250, 9100, 10920, -291, -477, -45, 1011.02, 33.34
8541, -35, -65, -981, 14840, -8050, 6580, -288, -466, -57, 1011.02, 33.34
8581, -37, -96, -892, 19530, -10780, 5180, -292, -471, -46, 1010.97, 33.35
8621, -19, -165, -973, -10430, 20230, 2590, -283, -480, -33, 1011.02, 33.35
8661, 0, -82, -1022, -26740, 29330, 4480, -282, -468, -33, 1011.04, 33.36
8701, 41, -2, -1045, -7700, 6370, 11200, -289, -475, -34, 1010.99, 33.37
8741, -23, -32, -973, -34930, 22890, 7420, -280, -469, -22, 1011.01, 33.37
8781, 93, -63, -983, -28420, 13930, 9030, -285, -474, -18, 1011.00, 33.37
8821, 12, 7, -893, -13440, -20510, 16940, -285, -463, -19, 1011.02, 33.37
8861, -49, 29, -828, -7700, -28350, 33810, -277, -459, -24, 1011.00, 33.38
8901, 11, 2, -892, 10920, -22820, -5460, -279, -477, -34, 1011.02, 33.39
8941, -4, 39, -839, 18900, -18830, -9730, -283, -469, -37, 1011.01, 33.39
8981, 23, -47, -997, 25690, -4270, 19040, -285, -450, -39, 1011.07, 33.40
9021, -38, -95, -1037, 22330, -8400, 17570, -282, -451, -54, 1010.97, 33.41
9061, -19, 10, -926, -3780, 560, 8330, -273, -441, -40, 1011.06, 33.41
9101, -78, -54, -881, -7910, 24850, -4340, -283, -451, -46, 1011.06, 33.41
9141, -12, -95, -981, -2800, 46620, -6510, -268, -451, -27, 1011.05, 33.42
9181, 122, -39, -998, -1680, 24290, 840, -270, -457, -30, 1010.96, 33.42
9221, 147, 74, -1031, 8050, -8190, -7560, -277, -459, -39, 1010.94, 33.43
9261, -30, -63, -935, -840, -21770, -27510, -289, -469, -42, 1010.97, 33.43
9301, -36, -51, -928, -19600, 6930, -18900, -282, -460, -39, 1010.99, 33.44
9341, -14, 69, -949, -37380, 18550, -5810, -285, -466, -25, 1011.00, 33.44
9381, 2, 135, -973, -43190, 10220, 7350, -274, -469, -31, 1010.92, 33.45
9421, -13, 62, -985, -700, -2660, 22120, -268, -474, -28, 1011.00, 33.45
9461, -3, 7, -996, 16310, -2590, 24290, -274, -453, -36, 1011.03, 33.46
9501, 25, 4, -1019, -70, -3010, 21350, -277, -457, -39, 1011.07, 33.46
9541, 17, 76, -981, -19320, -8680, 18480, -259, -444, -34, 1011.04, 33.47
9581, 7, 26, -950, -9590, -3710, 32480, -262, -441, -46, 1011.05, 33.47
9621, 58, 34, -922, 1400, 1190, 32760, -262, -433, -40, 1011.02, 33.48
9661, 62, 57, -864, -2870, 1260, 25970, -252, -435, -45, 1011.06, 33.48
9701, 81, 61, -902, -6580, -2030, 25060, -261, -426, -42, 1011.03, 33.49
9741, 81, 102, -890, -5250, -5180, 22470, -253, -426, -54, 1011.03, 33.49
9781, 80, 69, -825, 3500, 7350, 24710, -253, -409, -57, 1011.03, 33.50
9821, 71, 51, -835, 15820, 14350, 23730, -247, -405, -69, 1010.98, 33.51
9861, 59, 1, -842, 22890, 10430, 25760, -250, -391, -70, 1010.99, 33.51
9901, 50, -47, -877, 12950, 420, 20790, -253, -387, -79, 1011.01, 33.51
9941, 32, -76, -967, 6440, -14910, 13790, -247, -385, -99, 1010.99, 33.52
9981, 0, -65, -1062, 1610, -26530, 7210, -252, -376, -112, 1011.00, 33.52
10021, -13, -45, -1104, 1890, -15750, 7420, -247, -364, -126, 1010.98, 33.53
10061, -46, -70, -1103, 7770, -3920, 11760, -243, -361, -144, 1010.97, 33.52
10101, -87, -26, -1072, -14210, -6580, 6090, -241, -348, -165, 1011.01, 33.53
10141, -139, -24, -1051, -31640, -11830, 12320, -244, -349, -180, 1011.08, 33.54
10181, -157, -5, -1088, -27790, -7910, 29680, -244, -324, -190, 1011.10, 33.55
10221, -166, -37, -1074, -8750, 0, 42980, -237, -315, -201, 1011.07, 33.55
10261, -149, -75, -1074, 3780, 8540, 45710, -243, -297, -219, 1011.04, 33.55
10301, -127, -45, -1064, -2660, -980, 41090, -243, -289, -228, 1011.04, 33.56
10341, -126, -31, -1023, -5040, -10850, 35910, -243, -274, -240, 1011.04, 33.56
10381, -104, -56, -951, 12810, -1470, 29470, -250, -265, -255, 1011.02, 33.57
10421, -103, -91, -964, 23940, -3710, 8540, -264, -256, -271, 1011.07, 33.57
10461, -97, -77, -972, -840, -41510, -4200, -273, -261, -295, 1011.07, 33.58
10501, -421, 45, -1016, 10010, -31500, -8540, -283, -246, -301, 1011.09, 33.58
10541, -8, 155, -815, 2520, 28420, 18060, -283, -237, -291, 1011.06, 33.59
10581, -123, 20, -967, 33670, 51030, 56280, -274, -232, -271, 1011.10, 33.59
10621, 80, -153, -1003, 46130, 71610, 67340, -276, -208, -265, 1011.06, 33.59
10661, 126, -194, -929, 13650, 42280, 39620, -259, -207, -255, 1011.01, 33.60
10701, 70, -115, -951, -16940, -7910, -11690, -271, -211, -250, 1011.02, 33.60
10741, -141, 170, -1022, -26600, -26320, -35560, -268, -222, -264, 1010.98, 33.61
10781, -12, -112, -967, 5320, 3150, 6370, -271, -216, -267, 1011.06, 33.61
10821, -24, -11, -991, -1190, 910, 8750, -280, -217, -256, 1011.04, 33.61
10861, -15, -41, -969, -420, 1260, 1260, -277, -222, -264, 1011.00, 33.62
10901, -23, -33, -976, -280, 1260, 1260, -274, -223, -258, 1011.06, 33.62
10941, -26, -32, -977, -280, 1330, 70, -280, -219, -259, 1011.06, 33.63
10981, -5, -35, -975, -280, 1330, -1750, -270, -229, -265, 1011.00, 33.63
11021, -35, -32, -979, -280, 1260, 1750, -274, -220, -264, 1011.04, 33.64
11061, -19, -34, -977, -210, 1400, 1960, -271, -219, -265, 1011.07, 33.64
11101, -23, -33, -977, -210, 1330, 1890, -279, -210, -258, 1011.04, 33.64
11141, -22, -33, -977, -210, 1400, 1890, -280, -223, -264, 1011.01, 33.65
11181, -21, -34, -977, -210, 1330, 1960, -264, -223, -265, 1011.02, 33.66
11221, -22, -33, -977, -210, 1330, 1890, -273, -219, -262, 1011.05, 33.66
11261, -21, -33, -977, -210, 1330, 1960, -279, -225, -268, 1011.07, 33.66
11301, -21, -34, -976, -210, 1400, 1960, -277, -226, -267, 1011.06, 33.67
11341, -22, -33, -977, -280, 1400, 1890, -268, -210, -261, 1011.02, 33.67
11381, -22, -33, -977, -210, 1400, 1890, -276, -211, -264, 1011.03, 33.68
11421, -20, -34, -977, -210, 1400, 1890, -274, -225, -258, 1011.06, 33.67
11461, -21, -33, -977, -280, 1330, 1890, -273, -216, -267, 1011.01, 33.69
11501, -22, -33, -977, -210, 1330, 1890, -285, -220, -255, 1011.00, 33.69
11541, -22, -33, -977, -210, 1330, 1960, -279, -231, -261, 1011.08, 33.69
11581, -21, -34, -976, -210, 1330, 1890, -276, -211, -270, 1011.04, 33.70
11621, -22, -34, -976, -210, 1330, 1890, -270, -226, -259, 1011.02, 33.70
11661, -21, -33, -977, -210, 1400, 1890, -270, -222, -258, 1011.02, 33.70
11701, -21, -32, -977, -210, 1330, 1890, -271, -219, -267, 1011.05, 33.70
11741, -22, -33, -977, -210, 1330, 1890, -267, -220, -261, 1011.02, 33.71
11781, -21, -33, -976, -210, 1330, 1960, -270, -223, -258, 1011.02, 33.72
11821, -21, -33, -977, -210, 1400, 1960, -277, -223, -261, 1011.07, 33.72
11861, -21, -33, -977, -210, 1330, 1890, -276, -222, -273, 1011.04, 33.72
11901, -21, -32, -977, -210, 1330, 1960, -273, -222, -259, 1011.03, 33.73
11941, -22, -34, -976, -210, 1400, 1960, -276, -217, -267, 1011.11, 33.73
11981, -21, -33, -977, -210, 1400, 1960, -273, -226, -268, 1011.05, 33.74
12021, -21, -33, -977, -210, 1400, 1960, -276, -228, -270, 1011.02, 33.74
12061, -22, -33, -977, -210, 1400, 1960, -268, -228, -264, 1010.99, 33.74
12101, -21, -34, -977, -210, 1330, 1960, -282, -216, -262, 1011.08, 33.74
12141, -21, -33, -977, -210, 1330, 1960, -273, -226, -267, 1011.10, 33.75
12181, -22, -33, -977, -210, 1400, 1890, -277, -219, -267, 1011.01, 33.76
12221, -20, -33, -977, -210, 1400, 1890, -279, -226, -262, 1011.04, 33.76
12261, -22, -34, -977, -210, 1400, 1960, -274, -225, -267, 1011.02, 33.77
12301, -22, -33, -977, -280, 1400, 1890, -273, -223, -261, 1011.03, 33.77
12341, -21, -33, -977, -280, 1400, 1890, -277, -217, -261, 1011.05, 33.77
12381, -21, -34, -976, -280, 1330, 1890, -274, -219, -261, 1011.04, 33.77
12421, -22, -33, -977, -210, 1330, 1890, -279, -220, -261, 1011.00, 33.78
12461, -21, -33, -977, -210, 1330, 1890, -274, -220, -270, 1011.03, 33.79
12501, -21, -33, -977, -210, 1330, 1890, -271, -217, -262, 1011.04, 33.79
12541, -22, -33, -976, -210, 1330, 1890, -264, -225, -264, 1011.02, 33.79
12581, -22, -34, -977, -210, 1400, 1960, -274, -219, -262, 1011.03, 33.80
12621, -21, -34, -977, -210, 1330, 1960, -270, -216, -264, 1011.01, 33.80
12661, -20, -31, -977, -280, 1330, 1960, -270, -225, -262, 1011.01, 33.80
12701, -21, -33, -976, -210, 1400, 1960, -265, -232, -262, 1011.00, 33.81
12741, -20, -35, -977, -210, 1400, 1890, -280, -208, -276, 1011.01, 33.81
12781, -23, -32, -977, -280, 1400, 1890, -279, -220, -262, 1011.02, 33.81
12821, -21, -32, -978, -210, 1400, 1960, -286, -220, -262, 1011.03, 33.81
12861, -21, -34, -976, -210, 1330, 1890, -270, -223, -265, 1010.97, 33.83
12901, -22, -33, -978, -210, 1400, 1890, -274, -223, -271, 1011.00, 33.82
12941, -21, -33, -977, -210, 1400, 1890, -273, -223, -265, 1010.99, 33.83
12981, -22, -33, -977, -210, 1400, 1890, -273, -216, -268, 1011.01, 33.83
13021, -22, -33, -977, -280, 1400, 1960, -271, -219, -268, 1010.98, 33.84
13061, -24, -37, -977, -350, 1610, 1960, -268, -226, -261, 1011.02, 33.84
13101, -16, -30, -977, -420, 1680, 1960, -273, -216, -264, 1010.97, 33.84
13141, -22, -31, -977, -140, 980, 2100, -268, -223, -265, 1011.04, 33.85
13181, -21, -34, -976, -70, 1190, 3290, -279, -225, -267, 1011.04, 33.85
13221, -21, -33, -978, -140, 1260, 2590, -268, -205, -267, 1011.05, 33.86
13261, -21, -33, -977, -210, 1330, 2030, -279, -222, -271, 1011.07, 33.86
13301, -21, -33, -977, -210, 1400, 1960, -271, -223, -267, 1011.08, 33.86
13341, -21, -33, -977, -210, 1400, 1960, -277, -219, -259, 1011.02, 33.87
13381, -21, -33, -976, -210, 1400, 1890, -274, -216, -264, 1011.03, 33.87
13421, -21, -33, -977, -280, 1400, 1960, -277, -217, -262, 1011.01, 33.87
13461, -21, -33, -977, -210, 1260, 2030, -279, -232, -259, 1010.96, 33.88
13501, -21, -33, -977, -280, 1190, 2100, -264, -219, -264, 1010.98, 33.88
13541, -19, -33, -978, -210, 1330, 2800, -279, -220, -268, 1011.00, 33.88
13581, -21, -33, -977, -140, 1400, 5250, -271, -220, -268, 1010.98, 33.89
13621, -20, -33, -977, -70, 1470, 6160, -277, -219, -262, 1010.98, 33.89
13661, -21, -33, -976, 0, 1470, 6650, -264, -219, -262, 1011.00, 33.90
13701, -23, -33, -977, -70, 1540, 6930, -279, -210, -261, 1011.01, 33.90
13741, -20, -32, -977, -70, 1400, 4060, -280, -214, -270, 1011.02, 33.90
13781, -2, -23, -979, -140, 1050, 910, -270, -220, -259, 1011.02, 33.91
13821, 13, -15, -974, 770, -490, 70, -270, -216, -268, 1011.02, 33.90
13861, 43, 2, -988, 420, 2100, 4340, -273, -210, -261, 1011.02, 33.91
13901, 99, 5, -968, -1330, 2170, 7490, -267, -207, -279, 1011.06, 33.91
13941, 162, 12, -993, -2520, 3430, 6300, -262, -205, -292, 1011.07, 33.92
13981, 329, 102, -975, -700, 2240, 7630, -250, -189, -304, 1011.04, 33.92
14021, 422, 145, -1006, -560, -140, -140, -226, -187, -322, 1011.02, 33.93
14061, 456, 107, -979, -350, 350, -2870, -181, -177, -337, 1011.09, 33.93
14101, 277, 30, -982, -910, 3290, -14280, -132, -165, -346, 1011.06, 33.94
14141, 27, -253, -347, -10640, 14140, -10360, -66, -190, -345, 1011.05, 33.94
14181, -534, -1, -1058, 8960, -38220, 7280, -10, -201, -300, 1011.01, 33.94
14221, -291, -118, -944, 9310, -4410, 12110, 7, -226, -261, 1011.02, 33.95
14261, -334, -108, -979, 1120, 420, 16730, 15, -234, -232, 1011.01, 33.95
14301, -330, -158, -965, 1470, 1890, 17780, 4, -240, -213, 1011.03, 33.96
14341, -248, -95, -976, -490, 1610, 5180, 6, -255, -198, 1011.03, 33.96
14381, -172, -74, -969, -140, 910, 140, 6, -258, -169, 1011.02, 33.96
14421, -141, -106, -971, 0, 1750, 5880, -1, -262, -163, 1011.03, 33.97
14461, -93, -79, -980, -630, 1400, -1750, -3, -274, -159, 1011.03, 33.97
14501, -69, -50, -973, 210, 560, -4270, -10, -273, -147, 1011.05, 33.97
14541, -68, -68, -970, -70, 1190, -4270, -12, -283, -142, 1011.03, 33.98
14581, -86, -57, -973, -210, 980, -700, -21, -286, -135, 1011.03, 33.98
14621, -35, -43, -976, -70, 1750, 1610, -15, -285, -132, 1011.09, 33.98
14661, -124, -57, -979, -910, 840, 770, -16, -289, -132, 1011.05, 33.99
14701, -122, -57, -981, 0, 770, 3360, -15, -286, -126, 1011.04, 33.99
14741, -83, -58, -969, -280, 1470, 3640, -21, -280, -120, 1011.02, 34.00
14781, -108, -72, -974, -280, 2520, 6440, -28, -285, -115, 1010.99, 34.00
14821, -104, -61, -976, -280, 1820, 5390, -25, -288, -121, 1011.04, 34.00
14861, -70, -53, -972, -140, 1610, 5040, -28, -286, -108, 1011.00, 34.00
14901, -70, -52, -978, -280, 1330, 4620, -19, -274, -121, 1010.99, 34.01
14941, -37, -33, -977, -210, 1680, 3220, -31, -292, -108, 1011.05, 34.01
14981, -45, -40, -975, -350, 1330, 1470, -21, -289, -117, 1011.03, 34.01
15021, -21, -29, -979, -140, 1540, 2870, -25, -288, -108, 1011.01, 34.02
15061, -63, -50, -975, -350, 1260, 3220, -30, -295, -117, 1011.02, 34.02
15101, -46, -48, -973, -420, 1050, 1680, -27, -289, -102, 1011.03, 34.03
15141, -51, -37, -978, -420, 1610, 2660, -28, -292, -102, 1011.10, 34.03
15181, -58, -48, -978, -280, 1190, 2800, -39, -292, -105, 1011.02, 34.03
15221, -53, -38, -975, 280, 630, 3080, -34, -283, -103, 1011.03, 34.03
15261, -45, -43, -975, 70, 1120, 2800, -25, -288, -106, 1010.99, 34.04
15301, -57, -50, -976, -420, 1260, 3990, -34, -280, -100, 1011.03, 34.04
15341, -45, -46, -974, -350, 1260, 3990, -33, -297, -103, 1011.06, 34.04
15381, -48, -35, -981, -840, 2030, 4340, -22, -294, -97, 1011.08, 34.05
15421, -60, -48, -973, -280, 1680, 5180, -36, -297, -99, 1011.04, 34.05
15461, -46, -37, -975, 0, 1400, 3500, -34, -292, -97, 1011.02, 34.05
15501, -67, -41, -976, -350, 1470, 2310, -33, -283, -90, 1011.06, 34.05
15541, -47, -42, -976, 560, 630, 2380, -24, -292, -91, 1011.05, 34.06
15581, -48, -42, -976, 0, 1890, 3500, -31, -286, -91, 1011.02, 34.06
15621, -52, -41, -977, -840, 2940, 3290, -34, -288, -99, 1011.10, 34.07
15661, -46, -36, -978, 350, 420, 3080, -30, -282, -88, 1011.06, 34.07
15701, -58, -49, -975, -140, 1540, 4410, -31, -279, -93, 1011.03, 34.09
15741, -59, -43, -977, -490, 1890, 5880, -22, -286, -94, 1010.99, 34.08
15781, -55, -38, -976, -280, 1820, 7490, -30, -291, -93, 1011.03, 34.08
15821, -49, -41, -975, 140, 1610, 8400, -34, -288, -88, 1011.02, 34.08
15861, -54, -42, -976, -70, 1540, 8540, -27, -285, -90, 1011.08, 34.09
15901, -48, -41, -975, 0, 1470, 7700, -28, -280, -94, 1011.11, 34.10
15941, -53, -44, -976, -140, 1750, 7560, -36, -280, -81, 1011.07, 34.10
15981, -57, -41, -976, -350, 1680, 6860, -30, -279, -96, 1011.10, 34.11
16021, -46, -39, -976, -350, 1750, 5530, -18, -292, -90, 1011.12, 34.10
16061, -42, -38, -976, -280, 1680, 5040, -27, -271, -91, 1011.06, 34.11
16101, -43, -38, -977, -210, 1540, 5180, -28, -273, -94, 1011.05, 34.11
16141, -43, -38, -976, -140, 1470, 4410, -33, -271, -88, 1011.06, 34.11
16181, -42, -38, -977, -210, 1470, 4620, -30, -274, -91, 1011.04, 34.12
16221, -45, -38, -976, -210, 1470, 5180, -30, -267, -93, 1011.03, 34.12
16261, -43, -38, -976, -140, 1400, 3220, -27, -274, -88, 1011.03, 34.12
16301, -45, -38, -977, -210, 1470, 2310, -34, -273, -85, 1011.07, 34.12
16341, -43, -37, -976, -280, 1610, 2520, -28, -267, -87, 1011.08, 34.13
16381, -41, -39, -976, -280, 1540, 2800, -33, -277, -88, 1011.07, 34.14
16421, -43, -39, -977, -210, 1610, 2030, -39, -276, -87, 1010.98, 34.14
16461, -63, -43, -975, -350, 1610, 2310, -31, -267, -94, 1010.99, 34.14
16501, -42, -32, -980, -630, 2800, 13160, -28, -259, -88, 1011.09, 34.14
16541, -117, -93, -983, -2940, 7490, 14700, -21, -264, -81, 1011.09, 34.14
16581, -113, -39, -988, -15260, 26880, 13580, -28, -261, -66, 1011.09, 34.15
16621, -180, -6, -982, -18620, 54670, 31780, -28, -243, -37, 1011.04, 34.16
16661, -218, -25, -989, 16310, 37310, 59780, -33, -217, -48, 1011.02, 34.16
16701, -322, -80, -989, 42560, 980, 64120, -46, -193, -57, 1010.99, 34.17
16741, -380, -169, -991, 30730, -11620, 51520, -37, -178, -70, 1011.03, 34.17
16781, -330, -175, -981, 10710, -10780, 32480, -37, -153, -84, 1011.06, 34.17
16821, -295, -159, -970, 4480, -14980, 23590, -30, -145, -117, 1011.01, 34.18
16861, -274, -135, -946, -8120, -26600, 14140, -43, -120, -157, 1011.01, 34.17
16901, -190, -71, -992, -24500, -31570, 0, -27, -105, -213, 1010.96, 34.18
16941, -111, -45, -1013, -20370, -27510, 7420, -54, -79, -276, 1011.00, 34.18
16981, -14, -12, -973, -14070, -18900, 16870, -82, -55, -348, 1011.00, 34.18
17021, 69, -13, -898, -10640, -13230, 20370, -150, -51, -378, 1011.03, 34.19
17061, 204, 45, -1016, -2240, -10150, 17360, -211, -37, -378, 1011.06, 34.19
17101, 176, -36, -858, 13650, 4760, 24710, -273, -60, -373, 1011.05, 34.20
17141, 301, -74, -963, 7140, -13790, 14070, -291, -79, -354, 1011.08, 34.20
17181, 180, -24, -1019, 0, 7840, 4340, -316, -94, -334, 1011.08, 34.20
17221, 187, -50, -995, 13160, 12600, 5320, -328, -114, -325, 1011.05, 34.21
17261, 141, -58, -990, -1890, 12180, -7350, -325, -124, -325, 1011.00, 34.21
17301, 72, -76, -982, -8750, 14000, -13440, -322, -135, -301, 1011.05, 34.21
17341, 24, -76, -974, -3500, 23590, -13230, -313, -136, -300, 1010.99, 34.22
17381, 39, -64, -978, -8260, 25620, -9310, -304, -144, -283, 1011.05, 34.22
17421, 71, -34, -975, -4830, 15820, -7350, -303, -138, -286, 1011.05, 34.22
17461, 60, -19, -975, -2030, 9380, -140, -309, -141, -288, 1011.04, 34.23
17501, 73, -17, -969, -350, 3290, 3220, -318, -150, -279, 1011.00, 34.22
17541, -15, -84, -970, 2660, -11690, 3640, -321, -147, -288, 1010.96, 34.23
17581, -56, -16, -981, -4830, -11760, -1890, -309, -147, -294, 1011.00, 34.23
17621, -33, -31, -983, -840, 210, -910, -309, -142, -298, 1010.93, 34.24
17661, -18, -38, -975, -490, 2100, 3080, -312, -160, -289, 1011.04, 34.24
17701, -21, -28, -978, -560, 1540, 2030, -300, -139, -286, 1011.02, 34.25
17741, -18, -36, -977, -210, 1470, 1960, -318, -151, -297, 1011.02, 34.24
17781, -20, -36, -976, -280, 1260, 1890, -318, -150, -292, 1011.05, 34.25
17821, -16, -38, -977, -280, 1400, 1960, -315, -150, -288, 1011.03, 34.26
17861, -23, -32, -976, -350, 1400, 1890, -312, -141, -297, 1011.10, 34.25
17901, -19, -35, -977, -210, 1330, 1960, -313, -147, -289, 1011.09, 34.26
17941, -20, -35, -977, -210, 1330, 1960, -303, -141, -298, 1011.02, 34.26
17981, -20, -36, -976, -210, 1400, 1960, -306, -157, -292, 1011.02, 34.26
18021, -19, -36, -977, -210, 1400, 1960, -303, -145, -292, 1011.04, 34.26
18061, -20, -35, -977, -210, 1400, 1960, -316, -148, -285, 1011.03, 34.27
18101, -21, -35, -976, -210, 1470, 1960, -307, -153, -289, 1011.05, 34.27
18141, -17, -35, -977, -210, 1470, 2030, -321, -147, -291, 1011.06, 34.27
18181, -20, -35, -977, -210, 1120, 1890, -310, -142, -295, 1011.04, 34.28
18221, -19, -35, -977, -210, 1330, 1960, -307, -153, -295, 1011.01, 34.28
18261, -20, -35, -976, -210, 1400, 1960, -316, -144, -295, 1010.96, 34.29
18301, -18, -37, -977, -140, 1470, 1890, -309, -156, -294, 1011.00, 34.29
18341, -20, -36, -977, -210, 1330, 1890, -313, -148, -294, 1011.02, 34.29
18381, -21, -34, -977, -210, 1400, 1960, -309, -141, -291, 1011.02, 34.29
18421, -18, -36, -976, -210, 1680, 1960, -316, -141, -297, 1011.01, 34.30
18461, -18, -36, -976, -210, 1470, 1960, -313, -147, -297, 1011.01, 34.30
18501, -19, -35, -976, -210, 1330, 2030, -309, -147, -304, 1011.12, 34.30
18541, -18, -34, -976, -210, 1400, 2310, -306, -142, -283, 1011.05, 34.31
18581, -20, -36, -977, -210, 1400, 3290, -327, -148, -300, 1011.05, 34.30
18621, -18, -36, -976, -210, 1540, 3290, -316, -148, -303, 1011.05, 34.31
18661, -19, -35, -977, -210, 1400, 2310, -315, -147, -295, 1011.07, 34.31
18701, -17, -34, -977, -210, 1470, 2030, -310, -154, -301, 1011.05, 34.31
18741, -19, -36, -976, -140, 1050, 1960, -304, -154, -294, 1011.02, 34.32
18781, -21, -36, -976, -140, 840, 1890, -304, -150, -295, 1011.03, 34.32
18821, -13, -33, -977, -140, 1050, 2100, -312, -142, -295, 1011.03, 34.32
18861, -2, -31, -977, -140, 1260, 2100, -309, -150, -298, 1011.05, 34.33
18901, 2, -30, -978, -350, 1260, 280, -310, -148, -298, 1011.05, 34.33
18941, 3, -35, -977, -280, 1260, 1330, -310, -144, -307, 1011.03, 34.33
18981, 16, -29, -977, -350, 1260, 2100, -306, -150, -304, 1011.03, 34.33
19021, 11, -29, -978, -70, 1400, 3640, -303, -141, -303, 1011.00, 34.34
19061, 39, -34, -977, -280, 1610, 4340, -307, -136, -303, 1011.02, 34.35
19101, 25, -27, -979, 280, 1680, 3570, -309, -141, -309, 1010.97, 34.34
19141, 37, -29, -977, 490, 700, 3780, -304, -127, -310, 1010.95, 34.35
19181, 93, -24, -983, -490, 1540, 2520, -300, -132, -322, 1010.97, 34.36
19221, 82, -42, -976, -770, 770, 2590, -288, -118, -325, 1011.03, 34.35
19261, 127, -57, -982, -770, 140, -630, -274, -120, -348, 1010.98, 34.35
19301, 132, -86, -969, 420, 770, -4270, -255, -100, -351, 1011.01, 34.35
19341, 99, -44, -981, -770, 980, -8610, -235, -90, -366, 1011.06, 34.36
19381, 90, -37, -970, -980, 2730, -13230, -207, -81, -370, 1011.06, 34.36
19421, -17, 100, -701, -910, -2100, -11340, -171, -75, -382, 1011.02, 34.36
19461, 66, -89, -841, -1190, -8750, 2170, -145, -76, -385, 1011.05, 34.38
19501, 35, 10, -953, 910, -18270, 6230, -100, -67, -372, 1011.09, 34.37
19541, -1, -62, -981, 1890, 1750, 2800, -67, -78, -346, 1011.07, 34.38
19581, -15, -15, -979, 700, 1260, 2590, -31, -81, -310, 1011.12, 34.38
19621, -42, -52, -973, -700, -1610, 1820, -24, -93, -268, 1011.14, 34.38
19661, -53, 2, -980, -2240, -1540, 1890, -15, -108, -244, 1011.04, 34.38
19701, -106, 4, -974, -1960, -630, 6020, -24, -117, -210, 1011.04, 34.39
19741, -143, 4, -972, 350, 910, 10220, -34, -135, -183, 1011.00, 34.39
19781, -158, -18, -975, 350, 2590, 12880, -37, -123, -162, 1011.05, 34.39
19821, -181, -49, -976, 630, 1330, 15120, -42, -141, -154, 1011.10, 34.40
19861, -171, -40, -976, -3430, -2730, 13020, -42, -139, -148, 1011.07, 34.41
19901, -163, -48, -971, -4130, -5250, 12950, -57, -132, -142, 1011.15, 34.40
19941, -163, -42, -972, -1470, -2310, 17360, -52, -132, -126, 1011.13, 34.41
19981, -146, -49, -971, 980, 1890, 20300, -54, -129, -135, 1011.05, 34.41
20021, -145, -65, -976, 350, 1680, 17850, -60, -117, -123, 1011.02, 34.42
20061, -135, -44, -973, -1680, -700, 12810, -63, -123, -126, 1011.03, 34.42
20101, -138, -26, -972, -1960, -420, 9380, -64, -133, -123, 1011.02, 34.42
20141, -134, -37, -973, -1540, -630, 11690, -75, -115, -118, 1011.03, 34.42
20181, -123, -27, -976, -2870, -630, 10990, -63, -127, -127, 1011.07, 34.42
20221, -116, -22, -973, -2660, -1470, 9450, -75, -130, -109, 1011.09, 34.43
20261, -116, -28, -971, -2940, -1680, 9940, -73, -123, -123, 1011.12, 34.43
20301, -109, -12, -975, -2590, 0, 10010, -60, -114, -114, 1011.06, 34.44
20341, -103, -3, -976, -350, 700, 10500, -79, -117, -126, 1011.07, 34.44
20381, -102, -10, -973, 490, 630, 10850, -69, -112, -112, 1011.06, 34.45
20421, -101, -14, -975, 420, 420, 10220, -78, -112, -118, 1011.09, 34.45
20461, -95, -13, -974, -1190, 70, 8330, -87, -111, -117, 1011.08, 34.45
20501, -94, -12, -975, -1400, -70, 8120, -75, -100, -118, 1011.03, 34.45
20541, -91, -6, -974, -1330, 420, 7140, -75, -100, -115, 1011.02, 34.45
20581, -95, -13, -974, -770, 0, 7070, -75, -111, -123, 1011.03, 34.46
20621, -88, -7, -974, -1750, 70, 6370, -73, -103, -124, 1011.00, 34.46
20661, -82, -4, -974, -1820, 980, 6300, -81, -103, -120, 1011.02, 34.46
20701, -78, -1, -976, -420, 2380, 7280, -87, -99, -109, 1011.01, 34.47
20741, -74, -9, -974, 1120, 3150, 8120, -82, -103, -121, 1011.06, 34.47
20781, -77, -8, -975, 1050, 3220, 7490, -88, -109, -108, 1010.97, 34.47
20821, -77, -2, -976, 1260, 4270, 6650, -88, -91, -112, 1011.01, 34.48
20861, -69, -14, -975, 2240, 5740, 6020, -79, -97, -106, 1011.00, 34.48
20901, -64, -10, -976, 1610, 6370, 5320, -79, -91, -112, 1011.09, 34.48
20941, -55, -14, -976, 2730, 6790, 5460, -73, -87, -118, 1011.06, 34.48
20981, -53, -23, -977, 3220, 5950, 5460, -81, -85, -102, 1011.03, 34.49
21021, -57, -15, -976, 2100, 5250, 4480, -90, -85, -96, 1011.05, 34.49
21061, -48, -18, -976, 3500, 6090, 6020, -82, -81, -97, 1011.04, 34.49
21101, -34, -39, -978, 4550, 4970, 7700, -79, -88, -96, 1011.00, 34.50
21141, -45, -31, -975, 1050, 2100, 3640, -84, -88, -97, 1011.04, 34.50
21181, -49, -20, -976, -420, 1540, 0, -85, -93, -108, 1011.08, 34.50
21221, -57, -13, -977, 1330, 2170, 280, -91, -82, -105, 1011.09, 34.50
21261, -82, -53, -976, 5810, 4270, 3360, -85, -88, -93, 1011.14, 34.50
21301, -85, -76, -971, 4480, 4200, -210, -82, -96, -96, 1011.05, 34.50
21341, -141, -43, -977, -3850, -2450, -6580, -84, -87, -94, 1011.08, 34.51
21381, -190, -42, -974, -4760, -210, -11690, -73, -99, -99, 1011.08, 34.52
21421, -214, -31, -974, 2450, 1680, -11550, -85, -96, -97, 1011.04, 34.52
21461, -222, -8, -971, 4340, 3430, -10150, -76, -102, -94, 1011.01, 34.52
21501, -233, -36, -978, 420, 4060, -7210, -78, -94, -108, 1011.04, 34.52
21541, -200, -28, -974, -1890, 8190, -5460, -79, -102, -106, 1011.07, 34.52
21581, -194, -16, -979, -2450, 8610, -5810, -73, -94, -112, 1011.01, 34.53
21621, -170, -45, -982, 770, 8190, -840, -66, -96, -114, 1011.00, 34.53
21661, -171, -41, -960, 1400, 2940, -560, -61, -85, -127, 1011.08, 34.53
21701, -145, -6, -975, -2730, -980, -2870, -64, -78, -151, 1011.08, 34.54
21741, -93, -46, -975, 1190, -1540, 3850, -52, -70, -177, 1011.05, 34.54
21781, -62, -91, -977, 3920, -6160, 6510, -54, -52, -210, 1011.04, 34.54
21821, -54, -7, -982, -4060, -9100, -4970, -57, -36, -235, 1011.01, 34.55
21861, -14, -14, -983, -1750, -4340, -1190, -76, -13, -283, 1011.05, 34.56
21901, 33, -48, -981, -840, -1400, 5110, -103, -9, -312, 1011.02, 34.55
21941, 47, -22, -973, -840, -5180, 840, -136, -12, -346, 1011.10, 34.56
21981, 71, -5, -975, -1820, -5810, -2100, -183, -6, -351, 1011.11, 34.55
22021, 111, -18, -961, 1820, -3850, 630, -211, -21, -351, 1011.07, 34.56
22061, 0, -59, -869, -2520, -14490, -2030, -237, -31, -346, 1011.09, 34.57
22101, 105, 57, -1024, -5670, -4690, -5600, -255, -39, -346, 1011.14, 34.58
22141, 51, -10, -980, 4970, 2940, 8400, -277, -45, -331, 1011.05, 34.58
22181, 62, -14, -983, -1820, 2310, 5950, -295, -63, -330, 1011.01, 34.57
22221, 32, -2, -987, -2730, 840, 4270, -295, -69, -325, 1011.05, 34.58
22261, 10, -21, -981, 1050, 3500, 7980, -310, -84, -325, 1011.06, 34.59
22301, 10, -50, -978, 2030, 4760, 8890, -319, -90, -313, 1011.09, 34.59
22341, 4, -52, -982, -770, 3010, 4900, -322, -87, -307, 1011.06, 34.59
22381, -21, -33, -977, -980, 3640, 630, -318, -96, -306, 1011.17, 34.59
22421, -18, -21, -978, -420, 7140, 1050, -322, -103, -300, 1011.09, 34.60
22461, -1, -44, -978, 4340, 11550, 5250, -333, -100, -295, 1011.09, 34.59
22501, 0, -66, -972, 6580, 16310, 6160, -321, -99, -294, 1011.13, 34.60
22541, 31, -95, -974, 2870, 22610, 2170, -315, -103, -282, 1011.07, 34.60
22581, 41, -17, -988, 840, 4690, 560, -318, -96, -283, 1011.08, 34.60
22621, -12, -47, -974, -420, 700, 1610, -321, -109, -283, 1011.04, 34.60
22661, -35, -30, -977, -1260, -490, 1120, -316, -100, -283, 1011.10, 34.60
22701, -16, -41, -976, 350, 2450, 2100, -316, -105, -283, 1011.06, 34.61
22741, -18, -38, -976, 350, 2520, 2520, -328, -102, -286, 1011.06, 34.61
22781, -18, -39, -977, -210, 1470, 2590, -316, -100, -283, 1011.06, 34.62
22821, -12, -28, -978, -70, 1610, 4060, -328, -105, -292, 1011.01, 34.62
22861, -24, -50, -975, 70, 1540, 2310, -316, -108, -288, 1011.00, 34.62
22901, -23, -37, -976, -280, 1260, 1890, -321, -103, -280, 1011.04, 34.62
22941, -19, -39, -977, -210, 1260, 1890, -325, -108, -285, 1011.01, 34.63
22981, -22, -45, -976, -280, 1260, 1890, -313, -108, -280, 1011.03, 34.62
23021, -14, -33, -977, -630, 770, 1820, -322, -94, -285, 1011.02, 34.63
23061, -10, -44, -977, -490, 910, 1820, -324, -111, -285, 1010.99, 34.63
23101, -6, -42, -979, -2380, -1890, 3360, -322, -100, -283, 1011.09, 34.64
23141, -1, -41, -980, -3290, -7070, 6370, -325, -108, -295, 1011.11, 34.64
23181, -44, -58, -973, -5460, -13580, 4550, -327, -108, -294, 1011.05, 34.64
23221, -19, 19, -983, -12740, -14070, -4410, -331, -105, -303, 1011.08, 34.65
23261, 7, -53, -983, -4830, -22330, -1750, -339, -99, -318, 1011.04, 34.65
23301, -8, -62, -977, -8120, -42070, 15470, -358, -103, -318, 1011.07, 34.65
23341, -102, 7, -967, -20720, -63840, 17220, -363, -105, -330, 1011.04, 34.66
23381, -117, 53, -961, -21630, -77490, 8610, -385, -100, -354, 1011.09, 34.66
23421, -223, 58, -937, -13020, -95830, 4270, -417, -91, -373, 1011.05, 34.66
23461, -307, 41, -910, -4550, -105350, 5110, -450, -91, -396, 1010.98, 34.66
23501, -347, 26, -894, -1330, -110740, 8750, -477, -79, -399, 1010.98, 34.66
23541, -430, 48, -864, -4130, -124320, 8050, -529, -66, -418, 1011.03, 34.67
23581, -514, 67, -814, -5180, -138810, -1050, -571, -70, -429, 1011.07, 34.67
23621, -601, 32, -739, -1400, -153300, -5040, -616, -58, -438, 1011.05, 34.67
23661, -712, 26, -651, -5600, -165620, -7560, -675, -45, -445, 1011.05, 34.67
23701, -791, 39, -561, -14210, -170730, -11620, -732, -45, -441, 1011.08, 34.68
23741, -843, 21, -456, -18130, -172760, -10640, -795, -34, -432, 1011.03, 34.68
23781, -917, 38, -338, -26320, -180600, -10430, -862, -39, -414, 1011.06, 34.69
23821, -946, 54, -211, -30310, -185010, -9870, -928, -27, -384, 1011.13, 34.69
23861, -991, 38, -80, -29750, -187670, -9590, -978, -21, -354, 1011.09, 34.69
23901, -1074, 50, 53, -31080, -186480, -6720, -1041, -13, -321, 1011.08, 34.69
23941, -947, 61, 200, -28630, -180320, -5320, -1102, -3, -267, 1011.05, 34.69
23981, -938, 1, 271, -23730, -172970, -7280, -1147, -7, -211, 1011.09, 34.70
24021, -950, 19, 415, -26740, -181580, -4900, -1194, -9, -144, 1011.03, 34.70
24061, -860, 33, 588, -29470, -184450, 2660, -1236, -22, -87, 1011.05, 34.70
24101, -811, 30, 570, -26880, -179550, 5180, -1287, -18, -9, 1011.09, 34.70
24141, -703, -29, 697, -23310, -187460, -2100, -1305, -39, 73, 1011.06, 34.70
24181, -613, -23, 863, -31430, -200970, 9030, -1326, -42, 160, 1011.02, 34.71
24221, -505, -19, 884, -29610, -199500, 16940, -1326, -54, 243, 1010.93, 34.70
24261, -384, -36, 1012, -24010, -201250, 15890, -1314, -72, 330, 1010.98, 34.71
24301, -249, -45, 1029, -9520, -183260, 19390, -1291, -90, 408, 1011.04, 34.72
24341, -102, -53, 1075, -3360, -164780, 19040, -1266, -105, 462, 1011.06, 34.72
24381, 37, -18, 1032, 7630, -122080, 8540, -1243, -115, 507, 1011.05, 34.72
24421, 48, -31, 990, 2170, -41300, 1120, -1249, -111, 489, 1011.02, 34.72
24461, 238, -64, 1034, -1400, 43400, -8890, -1252, -103, 456, 1011.04, 34.73
24501, 78, -58, 1018, -13090, 45290, -27580, -1273, -82, 436, 1011.07, 34.73
24541, 20, -81, 1015, -5320, 57540, -19460, -1272, -72, 409, 1011.06, 34.73
24581, -15, -69, 1022, 22750, 51590, 16450, -1291, -103, 399, 1011.10, 34.73
24621, -51, -10, 1026, 39620, 43680, 52220, -1311, -148, 397, 1011.04, 34.74
24661, -93, 32, 1012, 36470, 25970, 54180, -1314, -175, 403, 1011.05, 34.74
24701, -148, 49, 1011, 21840, -7280, 61110, -1306, -201, 414, 1011.07, 34.74
24741, -68, 65, 1017, 15190, -23730, 62230, -1317, -231, 438, 1011.06, 34.74
24781, -35, 77, 1026, 11200, -35630, 36750, -1309, -243, 457, 1011.00, 34.75
24821, 6, 69, 1027, -770, -40460, 11130, -1288, -238, 480, 1011.05, 34.75
24861, 49, 49, 1028, -14630, -35000, -1890, -1294, -228, 483, 1011.06, 34.76
24901, 63, 35, 1014, -23380, -12740, -18270, -1302, -210, 472, 1011.06, 34.76
24941, 83, -6, 1036, -29120, 19320, -32410, -1294, -186, 466, 1011.06, 34.76
24981, 198, -25, 1013, -19530, 18340, -16870, -1293, -178, 487, 1011.05, 34.76
25021, 162, -20, 1015, -3010, 1190, 11270, -1272, -195, 529, 1011.11, 34.76
25061, 182, -59, 1038, 10500, -10990, 18970, -1225, -169, 582, 1011.08, 34.77
25101, 182, -59, 1024, -770, -7070, 6580, -1146, -121, 601, 1011.06, 34.77
25141, 166, 7, 1019, -13720, 6300, -9100, -1080, -58, 559, 1011.00, 34.77
25181, 232, 9, 979, -7840, 3430, -16800, -1047, -10, 523, 1011.02, 34.77
25221, 169, -55, 672, -1260, -20300, -14280, -1030, -9, 531, 1011.05, 34.77
25261, -10, -33, 1077, -2800, 8330, -22190, -985, -51, 562, 1011.04, 34.78
25301, 71, -32, 1020, -9870, 24430, -37520, -921, -115, 595, 1011.08, 34.78
25341, 20, -13, 1034, -1610, -6860, -14700, -823, -163, 604, 1011.05, 34.79
25381, -131, -16, 1027, 4410, -18620, -1540, -766, -183, 568, 1011.05, 34.79
25421, -157, -9, 1025, -3570, 70, -11900, -729, -195, 526, 1011.04, 34.79
25461, -314, 60, 1014, -840, 27230, -12670, -754, -210, 487, 1011.05, 34.80
25501, -344, -10, 1070, 26460, 88410, 9800, -790, -223, 462, 1011.02, 34.80
25541, -216, 49, 998, 37520, 116410, 14350, -826, -241, 436, 1010.99, 34.80
25581, -216, 60, 997, 33460, 118580, 33880, -847, -250, 415, 1010.97, 34.81
25621, -271, 77, 978, 13510, 92610, 61180, -868, -271, 399, 1011.01, 34.81
25661, -313, 98, 959, -4200, 68110, 80150, -883, -288, 384, 1011.08, 34.81
25701, -353, 123, 930, -12250, 41370, 70840, -883, -267, 387, 1011.01, 34.81
25741, -339, 114, 942, -15750, -2100, 41300, -873, -279, 399, 1011.04, 34.82
25781, -304, 93, 965, -19600, -37310, 22890, -856, -274, 415, 1011.07, 34.82
25821, -256, 85, 985, -19110, -60550, 12040, -835, -273, 436, 1011.07, 34.82
25861, -205, 64, 997, -23170, -79520, 5950, -799, -253, 459, 1011.01, 34.82
25901, -130, 38, 1006, -37450, -105210, 24220, -775, -243, 486, 1011.02, 34.82
25941, -17, 12, 1100, -52920, -133280, 50120, -757, -249, 507, 1011.00, 34.83
25981, -29, 43, 979, -21630, -109760, 54600, -765, -267, 517, 1010.95, 34.83
26021, 48, -24, 1007, 27020, -11270, -17640, -777, -262, 522, 1011.05, 34.83
26061, 151, -17, 1030, 11760, 27020, -16450, -787, -267, 520, 1011.02, 34.83
26101, 1, 43, 1023, 350, 5390, 10010, -790, -267, 528, 1011.09, 34.83
26141, 5, 53, 1023, -1330, 2800, 19320, -790, -258, 526, 1011.06, 34.84
26181, 12, 33, 1027, -10360, 10640, 10500, -787, -262, 528, 1011.10, 34.84
26221, -20, 19, 1020, -9240, 10010, -14700, -789, -265, 528, 1011.04, 34.84
26261, -43, 55, 1029, -1960, 1120, -7630, -801, -256, 541, 1011.00, 34.84
26301, -36, 46, 1027, -3010, 210, -1260, -808, -252, 544, 1011.10, 34.84
26341, -101, 94, 1010, -9730, -5180, -3150, -814, -258, 552, 1011.09, 34.84
26381, -34, 46, 1042, -1680, 10220, -11620, -825, -249, 585, 1011.09, 34.85
26421, -89, 79, 1009, 140, 5600, -10710, -856, -250, 582, 1011.09, 34.85
26461, -114, 63, 1026, 7560, -280, 420, -870, -250, 598, 1011.06, 34.86
26501, -88, 56, 1019, 5320, -1680, 4480, -907, -232, 610, 1011.07, 34.86
26541, -54, 43, 1027, 70, 1960, 770, -952, -195, 613, 1011.08, 34.86
26581, -113, 67, 1029, 700, 2380, 1400, -1008, -162, 628, 1011.08, 34.86
26621, -25, 30, 1028, 1120, 1820, 3990, -1048, -115, 664, 1011.09, 34.87
26661, -25, 54, 1006, 420, -1610, 9100, -1119, -93, 703, 1011.11, 34.87
26701, -156, 208, 230, 2800, 3290, -4410, -1198, -129, 756, 1011.04, 34.87
26741, 35, -77, 954, 5530, 2730, -16590, -1272, -187, 742, 1011.13, 34.87
26781, -88, 43, 1029, -13790, -28700, 13790, -1348, -273, 685, 1011.16, 34.88
26821, 62, 13, 1030, -6090, -7140, 14070, -1378, -334, 579, 1011.12, 34.88
26861, 43, 1, 1025, -1400, 2170, 3850, -1381, -382, 483, 1011.11, 34.88
26901, 71, -8, 1021, -630, 3360, 1610, -1351, -385, 408, 1011.11, 34.88
26941, 35, 31, 1021, -1190, 2450, -1120, -1323, -397, 354, 1011.06, 34.88
26981, 73, -34, 1022, -280, 1330, -840, -1284, -393, 312, 1011.10, 34.88
27021, 66, -52, 1039, -490, 560, -560, -1257, -391, 286, 1011.06, 34.89
27061, 16, -19, 1020, -70, 1540, -2380, -1240, -390, 261, 1011.07, 34.89
27101, 62, -53, 1017, 910, 1120, 490, -1221, -391, 246, 1011.04, 34.89
27141, 87, -7, 1029, -1610, -210, 1260, -1192, -396, 229, 1011.10, 34.90
27181, 52, -12, 1018, -630, -350, -4270, -1189, -387, 222, 1011.04, 34.90
27221, 72, -24, 1028, -1470, 2450, -13230, -1177, -379, 205, 1011.03, 34.90
27261, 46, -22, 1028, -560, 210, -13720, -1173, -379, 201, 1011.03, 34.90
27301, 11, 2, 1015, -980, 1400, -13510, -1161, -367, 195, 1011.05, 34.91
27341, 66, -24, 1027, -560, -70, -12040, -1159, -378, 201, 1011.02, 34.91
27381, 35, 14, 1019, -70, -700, -8890, -1153, -373, 189, 1011.06, 34.92
27421, 77, -15, 1031, -70, 1400, -8330, -1143, -358, 183, 1011.01, 34.92
27461, 65, 7, 1020, -490, -1260, -6230, -1144, -354, 180, 1011.01, 34.93
27501, 37, 2, 1019, 560, 280, -6020, -1144, -352, 180, 1011.04, 34.93
27541, 57, 14, 1023, -2240, 4410, -7840, -1138, -349, 180, 1011.08, 34.93
27581, 57, -2, 1029, -1190, 560, -3010, -1135, -357, 174, 1011.08, 34.93
27621, 27, 0, 1019, 140, -4270, 2870, -1137, -354, 177, 1011.08, 34.93
27661, 45, 7, 1026, -1470, -3570, 4830, -1134, -357, 175, 1011.06, 34.93
27701, 67, -8, 1030, -1680, -5390, 6370, -1117, -366, 174, 1011.01, 34.93
27741, 43, 6, 1021, -1260, -5460, 7560, -1122, -366, 177, 1011.02, 34.94
27781, 31, 10, 1018, -3360, -3640, 6790, -1122, -366, 177, 1011.05, 34.94
27821, 54, -2, 1018, -2450, -4410, 9520, -1120, -376, 180, 1011.04, 34.94
27861, 54, -2, 1014, -1330, -2800, 12810, -1116, -376, 178, 1011.08, 34.94
27901, 75, -5, 1035, -1400, -1540, 13370, -1114, -379, 187, 1011.03, 34.95
27941, 52, -14, 1018, -1330, -910, 13860, -1110, -381, 178, 1011.05, 34.96
27981, 50, 0, 1018, -2030, 2170, 14070, -1117, -396, 178, 1011.07, 34.96
28021, 65, -15, 1023, -350, 2450, 15260, -1113, -393, 157, 1011.09, 34.95
28061, 60, -20, 1021, 70, 2730, 14840, -1107, -405, 165, 1011.07, 34.96
28101, 95, -19, 1022, 980, 1190, 16030, -1111, -406, 168, 1011.01, 34.96
28141, 80, -19, 1020, 2030, 980, 15400, -1102, -426, 165, 1011.07, 34.96
28181, 88, -24, 1022, -1470, 4900, 11690, -1113, -414, 157, 1011.09, 34.97
28221, 110, -22, 1024, -7420, 8330, 7070, -1105, -426, 159, 1011.06, 34.97
28261, 134, -66, 1022, -10080, 6720, 1050, -1107, -421, 165, 1011.01, 34.97
28301, 92, -41, 1025, -2310, -9450, -9450, -1110, -415, 168, 1010.99, 34.97
28341, 61, -12, 1010, 3080, -23520, -2590, -1105, -418, 184, 1011.04, 34.98
28381, 93, -20, 1014, 13090, -9870, 5250, -1104, -423, 177, 1011.05, 34.98
28421, 75, 2, 1015, 15680, 5110, -3360, -1102, -411, 162, 1011.06, 34.99
28461, 123, 5, 1026, 17570, 9800, -140, -1108, -417, 165, 1011.05, 34.99
28501, 79, 29, 1021, 7840, 4900, 560, -1105, -418, 165, 1011.06, 34.99
28541, 62, 27, 1022, 1190, 10570, 7420, -1099, -429, 154, 1011.06, 34.99
28581, 58, 24, 1021, -910, 9380, 15400, -1105, -424, 159, 1011.10, 34.99
28621, 53, 29, 1026, -1820, 5810, 26040, -1096, -439, 156, 1011.10, 35.00
28661, 72, -2, 1009, 420, 1470, 40320, -1089, -450, 154, 1011.09, 35.00
28701, 45, 31, 1023, 2520, 22190, 17640, -1098, -454, 144, 1011.04, 35.00
28741, 3, 12, 1033, -9940, 28490, 140, -1093, -451, 142, 1011.03, 35.00
28781, 12, -2, 1021, -6020, 9800, 2030, -1098, -462, 145, 1011.04, 35.00
28821, 21, 15, 1024, 1750, -140, 9450, -1102, -444, 144, 1011.05, 35.02
28861, 17, 6, 1023, -1400, 1610, -1750, -1098, -448, 136, 1011.03, 35.01
28901, 19, 9, 1023, -350, 1190, -7350, -1095, -445, 142, 1011.07, 35.01
28941, 18, 10, 1024, -490, 1260, -9170, -1101, -435, 138, 1011.07, 35.02
28981, 20, 10, 1023, -840, 1330, -7770, -1108, -433, 141, 1011.06, 35.02
29021, 19, 10, 1023, -490, 1750, -6090, -1099, -433, 135, 1011.02, 35.02
29061, 17, 9, 1024, -560, 1540, -5460, -1096, -430, 138, 1011.02, 35.03
29101, 18, 11, 1023, -1260, 1120, -4060, -1104, -430, 136, 1011.11, 35.02
29141, 19, 10, 1023, -2100, 1610, -1050, -1098, -432, 144, 1011.05, 35.03
29181, 17, 4, 1022, -2870, 2100, 2310, -1107, -435, 135, 1010.99, 35.03
29221, 17, 6, 1024, -1470, 1540, 3290, -1110, -436, 139, 1010.95, 35.03
29261, 18, 6, 1025, -1470, -490, 4410, -1105, -433, 144, 1010.97, 35.04
29301, 18, 4, 1024, -4200, -420, 3570, -1102, -432, 133, 1011.02, 35.04
29341, 25, -12, 1016, -5530, 0, 3640, -1105, -430, 136, 1011.06, 35.04
29381, 26, -28, 1025, 5810, 5320, 4130, -1101, -439, 135, 1011.07, 35.04
29421, 64, -33, 1027, 9870, 1820, 1680, -1102, -432, 145, 1011.11, 35.04
29461, 344, -358, 1040, 2030, 910, -1050, -1092, -432, 156, 1011.14, 35.05
29501, 1050, -833, 1085, -1190, -125020, 45080, -1090, -453, 214, 1011.12, 35.05
29541, 1138, -742, 861, 28140, -73780, -2590, -1098, -445, 246, 1011.07, 35.06
29581, 747, -318, 950, -42630, 88340, -110040, -1162, -378, 241, 1011.06, 35.06
29621, 219, 109, 1017, -71540, 130480, -163030, -1281, -261, 319, 1011.04, 35.06
29661, -855, 489, 1102, 19110, -7910, -96670, -1137, -108, 601, 1011.09, 35.06
29701, -348, 146, 350, -49770, -17710, -178150, -949, 0, 537, 1011.12, 35.06
29741, -1227, -19, 1048, -95970, 7490, -190960, -804, -33, 577, 1011.07, 35.06
29781, -947, -5, 1102, -1820, -45080, -28630, -738, -69, 544, 1011.08, 35.07
29821, -156, -17, 1062, 22820, -4830, 15470, -735, -90, 531, 1011.06, 35.07
29861, 9, -55, 1025, -2380, 26600, -13440, -736, -79, 526, 1011.08, 35.07
29901, 9, -92, 1024, -1190, 21210, -20790, -736, -81, 525, 1011.06, 35.07
29941, 19, -45, 1022, 4970, 7070, -9310, -724, -85, 523, 1011.02, 35.07
29981, 55, -60, 1031, 4970, 840, 4830, -732, -79, 522, 1011.00, 35.07
30021, 54, -73, 1020, -5110, 6370, 6860, -738, -82, 520, 1011.03, 35.07
30061, 39, -90, 1014, -9310, 15610, 700, -750, -72, 528, 1011.03, 35.07
30101, 28, -93, 1013, 700, 10080, 3920, -738, -82, 523, 1011.03, 35.08
30141, 29, -73, 1022, 13440, -700, 6930, -736, -85, 523, 1011.03, 35.08
30181, 39, -53, 1031, 12740, -2520, 1470, -735, -91, 531, 1010.99, 35.08
30221, 35, -55, 1029, -840, 4340, -7770, -724, -85, 520, 1011.01, 35.08
30261, 33, -72, 1019, -11410, 9660, -15400, -747, -79, 516, 1011.10, 35.09
30301, 32, -83, 1015, -8890, 8750, -13090, -742, -75, 516, 1011.08, 35.08
30341, 25, -78, 1019, -1050, 9030, -7840, -748, -79, 519, 1011.09, 35.09
30381, 16, -76, 1021, 2170, 10360, -6930, -739, -79, 514, 1011.11, 35.09
30421, 11, -71, 1022, 4200, 6020, -3430, -741, -78, 517, 1011.08, 35.09
30461, 11, -65, 1025, 4480, 910, -1190, -739, -85, 505, 1011.01, 35.09
30501, 18, -63, 1025, 1470, -560, -1960, -744, -70, 517, 1011.02, 35.10
30541, 16, -65, 1025, -3150, 3850, -4550, -730, -73, 513, 1011.04, 35.09
30581, 6, -74, 1021, -7280, 10710, -10850, -736, -75, 514, 1011.05, 35.10
30621, -1, -79, 1020, -6370, 11900, -13790, -745, -67, 513, 1011.09, 35.10
30661, 0, -83, 1018, -2800, 5040, -10080, -741, -66, 516, 1011.03, 35.10
30701, 0, -78, 1020, 2520, 560, -7140, -733, -66, 516, 1011.10, 35.11
30741, 1, -74, 1022, 4620, 3080, -9660, -738, -66, 510, 1011.12, 35.11
30781, -1, -69, 1023, 4900, 6160, -11690, -732, -67, 522, 1011.14, 35.11
30821, -7, -65, 1025, 3570, 6440, -12110, -730, -70, 517, 1011.12, 35.11
30861, -7, -65, 1024, 1260, 4060, -11410, -735, -67, 519, 1011.09, 35.11
30901, -5, -67, 1021, 280, 1260, -8960, -736, -63, 531, 1011.11, 35.11
30941, -3, -67, 1020, 2310, 770, -7630, -736, -67, 519, 1011.10, 35.12
30981, -6, -59, 1024, 4620, 2730, -7630, -721, -66, 520, 1011.09, 35.12
31021, -8, -58, 1023, 3780, 2940, -8330, -726, -72, 522, 1011.03, 35.12
31061, -6, -54, 1025, 3570, -630, -6090, -726, -73, 526, 1011.02, 35.13
31101, -3, -50, 1027, 1330, -1750, -5670, -723, -70, 526, 1011.06, 35.13
31141, -4, -51, 1028, -3850, 1680, -9800, -717, -51, 528, 1011.09, 35.13
31181, -12, -57, 1026, -9870, 5250, -12600, -718, -54, 525, 1011.09, 35.13
31221, -14, -72, 1017, -12180, 6370, -10570, -724, -57, 519, 1011.08, 35.13
31261, -20, -81, 1016, 2450, 210, -700, -723, -58, 513, 1011.11, 35.13
31301, -23, -69, 1022, 4060, -1610, 2940, -714, -52, 528, 1011.04, 35.14
31341, -10, -55, 1023, 4410, -5040, 5250, -721, -55, 540, 1011.05, 35.15
31381, -26, -60, 1025, 4550, -3430, 3430, -724, -52, 534, 1011.06, 35.15
31421, -6, -53, 1020, 2520, 280, 140, -732, -55, 549, 1011.08, 35.15
31461, -9, -60, 1023, 3780, -2310, 840, -730, -40, 549, 1011.09, 35.16
31501, -17, -60, 1024, 4620, -2380, 1680, -726, -45, 567, 1011.12, 35.16
31541, 19, -58, 1023, 3080, -70, -70, -742, -42, 562, 1011.03, 35.16
31581, 14, -51, 1021, 4060, -2100, 490, -741, -48, 571, 1011.07, 35.16
31621, 21, -49, 1025, 5670, -4340, 3150, -744, -52, 576, 1010.98, 35.16
31661, 33, -48, 1023, 3010, -2450, 2380, -756, -39, 577, 1011.04, 35.16
31701, 32, -40, 1022, 1120, -1120, 70, -750, -40, 585, 1011.05, 35.17
31741, 33, -39, 1022, 1610, -1120, -1120, -766, -42, 582, 1011.02, 35.17
31781, 32, -43, 1023, 2170, -1190, -2450, -753, -22, 583, 1011.03, 35.17
31821, 21, -42, 1024, 2240, -1540, -3710, -766, -33, 586, 1011.08, 35.17
31861, 25, -39, 1022, 1470, 490, -5110, -766, -18, 583, 1011.10, 35.17
31901, 12, -40, 1024, 2590, -1120, -4620, -763, -30, 591, 1011.09, 35.18
31941, 12, -35, 1023, 2660, -840, -4130, -775, -13, 588, 1011.08, 35.18
31981, 17, -32, 1025, 3360, -1120, -3500, -783, -15, 592, 1011.01, 35.19
32021, 25, -21, 1023, 2660, 630, -2730, -780, -12, 586, 1011.07, 35.19
32061, 34, -21, 1024, 1820, 560, -2030, -802, 0, 585, 1011.12, 35.19
32101, 26, -18, 1023, 1960, 560, -2520, -780, 6, 580, 1011.02, 35.19
32141, 35, -25, 1022, 1820, 420, -3290, -786, 13, 582, 1011.05, 35.20
32181, 20, -27, 1023, 2590, -840, -2240, -796, 21, 588, 1011.09, 35.19
32221, 28, -25, 1023, 2520, 980, -1610, -795, 22, 579, 1011.04, 35.19
32261, 36, -24, 1024, 2870, 280, -70, -786, 37, 577, 1011.04, 35.20
32301, 54, -5, 1022, 4200, -2800, 1820, -793, 42, 582, 1011.07, 35.21
32341, 13, -22, 1022, 5040, -3010, 700, -793, 64, 579, 1011.06, 35.20
32381, 37, -12, 1024, 1470, 3360, -2310, -790, 72, 573, 1011.00, 35.21
32421, 17, -20, 1025, 2520, 1820, -980, -798, 84, 567, 1011.05, 35.20
32461, 34, -12, 1023, 3150, 560, 1890, -793, 102, 558, 1011.08, 35.21
32501, 23, -1, 1021, 4340, -420, 3430, -804, 118, 561, 1011.09, 35.22
32541, 28, -2, 1024, 1750, 3430, 1260, -786, 127, 561, 1011.06, 35.22
32581, 52, 13, 1024, -350, 5250, 350, -804, 142, 567, 1011.06, 35.22
32621, 55, 6, 1023, 2240, 1050, 1400, -798, 151, 562, 1011.08, 35.22
32661, 24, -5, 1023, 1960, 0, 1260, -792, 163, 564, 1011.02, 35.22
32701, 34, 4, 1021, -1400, 3430, 70, -795, 171, 562, 1011.06, 35.23
32741, 58, 12, 1022, 210, 1820, 1050, -807, 177, 570, 1011.09, 35.23
32781, 34, -2, 1025, 1680, -1330, 3150, -796, 189, 583, 1011.03, 35.23
32821, 18, -14, 1023, -840, 280, 3920, -811, 181, 591, 1011.10, 35.23
32861, 149, 61, 1100, -210, 490, 6860, -819, 183, 601, 1011.06, 35.24
32901, -32, -15, 976, 4200, 350, 3850, -829, 183, 607, 1011.11, 35.24
32941, 64, -14, 1008, -3570, 6720, -490, -846, 180, 609, 1011.08, 35.25
32981, -8, -9, 1004, 3570, -4340, 7700, -859, 183, 636, 1011.06, 35.25
33021, 2, -9, 1031, 0, -70, 8470, -882, 177, 630, 1011.12, 35.25
33061, 21, 2, 1024, -420, -210, 9660, -916, 163, 633, 1011.08, 35.25
33101, 37, 12, 1028, -1400, 770, 9660, -942, 169, 640, 1011.08, 35.25
33141, 36, 12, 1014, 280, -910, 9800, -972, 160, 634, 1011.06, 35.26
33181, 32, -5, 1032, -70, 280, 8120, -1017, 145, 625, 1011.02, 35.26
33221, 33, 8, 1012, -2590, 3220, 6160, -1057, 133, 600, 1011.07, 35.26
33261, 24, -3, 1028, -840, 3080, 6790, -1098, 139, 592, 1011.04, 35.26
33301, 32, 12, 1023, -1050, 4410, 7630, -1132, 144, 552, 1011.03, 35.26
33341, 25, 14, 1022, 70, 3850, 9240, -1155, 135, 528, 1010.99, 35.27
33381, 7, 9, 1021, 910, 2800, 10500, -1171, 126, 493, 1011.02, 35.27
33421, 0, 5, 1031, 840, 3010, 11270, -1179, 118, 459, 1011.03, 35.27
33461, -5, 17, 1018, 630, 3220, 12810, -1182, 99, 429, 1011.06, 35.27
33501, -15, 3, 1027, 2730, 1400, 16030, -1194, 87, 396, 1011.06, 35.28
33541, -16, 5, 1022, 1680, 2800, 19320, -1186, 58, 361, 1011.06, 35.28
33581, -11, -8, 1024, 700, 3780, 21840, -1180, 34, 331, 1011.17, 35.29
33621, -3, -11, 1022, 1680, 3850, 24710, -1176, 15, 304, 1011.14, 35.29
33661, 14, -6, 1028, 2660, 3360, 29190, -1171, -27, 288, 1011.11, 35.29
33701, 34, -6, 1020, 3990, 2380, 33040, -1159, -45, 256, 1011.06, 35.30
33741, 69, 9, 1031, 2240, 2590, 34510, -1152, -66, 247, 1011.06, 35.30
33781, 69, 7, 1014, 3010, 2170, 32900, -1150, -82, 238, 1011.05, 35.29
33821, 95, 15, 1025, 2310, 1820, 30240, -1155, -114, 216, 1011.03, 35.29
33861, 82, 16, 1018, 1120, 2030, 26950, -1137, -117, 214, 1011.02, 35.30
33901, 95, 11, 1017, -350, 3360, 23030, -1132, -132, 207, 1011.02, 35.30
33941, 52, 0, 1025, 2870, 210, 22680, -1123, -129, 198, 1011.02, 35.30
33981, 76, 9, 1032, -490, 3150, 20580, -1135, -162, 196, 1011.05, 35.31
34021, 74, 19, 1010, 1750, -560, 20860, -1122, -157, 195, 1011.04, 35.31
34061, 65, 14, 1024, 770, 280, 18270, -1123, -166, 190, 1011.03, 35.32
34101, 65, 16, 1024, -350, 910, 15330, -1120, -172, 190, 1011.05, 35.31
34141, 51, 11, 1022, 560, -350, 14070, -1125, -184, 184, 1010.98, 35.32
34181, 46, 7, 1025, -2520, 3010, 12250, -1119, -181, 183, 1011.01, 35.32
34221, 47, 12, 1022, -910, 1890, 13300, -1111, -186, 187, 1011.08, 35.33
34261, 51, 18, 1017, 700, -490, 15330, -1104, -205, 178, 1011.03, 35.32
34301, 69, 13, 1027, -140, 630, 13720, -1110, -201, 175, 1011.07, 35.33
34341, 41, 10, 1015, -1680, 2030, 11760, -1116, -210, 174, 1011.06, 35.32
34381, 62, 4, 1025, -1400, 2240, 12250, -1116, -211, 183, 1011.09, 35.33
34421, 62, 8, 1024, -490, 1400, 12740, -1117, -213, 175, 1011.09, 35.33
34461, 47, 2, 1022, -70, 1960, 12530, -1102, -225, 175, 1011.12, 35.34
34501, 69, 3, 1022, 210, 1330, 12880, -1108, -235, 171, 1011.04, 35.34
34541, 61, 4, 1021, 560, 1540, 12040, -1108, -235, 163, 1011.06, 35.34
34581, 49, 1, 1020, 210, 770, 11760, -1114, -228, 163, 1011.04, 35.34
34621, 54, 5, 1026, 630, 2030, 10220, -1102, -241, 166, 1011.09, 35.35
34661, 42, 11, 1020, -420, 2030, 9800, -1113, -237, 172, 1011.13, 35.35
34701, 47, 9, 1023, -350, 1120, 9380, -1113, -246, 159, 1011.09, 35.36
34741, 47, 12, 1024, -840, 3080, 9380, -1116, -250, 162, 1011.09, 35.35
34781, 38, 7, 1025, 210, 2660, 9800, -1108, -253, 162, 1011.12, 35.36
34821, 33, 11, 1023, 630, 3710, 9590, -1105, -258, 156, 1011.06, 35.36
34861, 29, 11, 1022, 910, 3360, 9940, -1099, -265, 162, 1011.07, 35.36
34901, 21, 9, 1021, 1400, 2310, 10710, -1110, -267, 148, 1011.03, 35.36
34941, 47, 11, 1025, 770, 2730, 10780, -1102, -268, 153, 1011.03, 35.36
34981, 49, 11, 1023, 1540, 1750, 11130, -1108, -267, 153, 1011.06, 35.37
35021, 39, 16, 1021, -210, 2170, 9660, -1102, -271, 151, 1011.05, 35.37
35061, 45, 10, 1023, -1260, 3080, 8190, -1116, -280, 156, 1011.05, 35.37
35101, 31, 6, 1023, -210, 2520, 9310, -1104, -274, 151, 1011.02, 35.37
35141, 40, 17, 1023, -700, 2940, 9730, -1104, -289, 145, 1011.03, 35.38
35181, 45, 16, 1024, -2170, 980, 7140, -1108, -286, 147, 1011.05, 35.38
35221, 35, 10, 1023, -4550, 280, 2170, -1110, -291, 148, 1011.05, 35.39
35261, 35, 2, 1020, -3710, 1680, 980, -1111, -297, 153, 1011.05, 35.38
35301, 40, -1, 1022, 1680, 2870, 3150, -1114, -294, 151, 1011.05, 35.39
35341, 53, -3, 1024, 4760, 1610, 7910, -1105, -285, 138, 1011.07, 35.39
35381, 60, 3, 1024, 2660, 560, 10710, -1108, -291, 147, 1011.06, 35.39
35421, 49, 8, 1020, -140, 2590, 11130, -1111, -298, 141, 1011.10, 35.39
35461, 46, 1, 1024, 1330, 1610, 11410, -1108, -303, 139, 1011.09, 35.39
35501, 43, 10, 1023, 1680, -1610, 10710, -1108, -303, 147, 1011.05, 35.40
35541, 61, 7, 1024, -1120, 630, 9590, -1114, -306, 147, 1011.03, 35.40
35581, 41, 8, 1025, -7420, 3360, 3220, -1110, -304, 142, 1011.08, 35.40
35621, 34, -16, 1013, -10570, 6020, -1400, -1108, -304, 141, 1011.02, 35.40
35661, 297, -195, 1041, 12390, 350, 16590, -1099, -333, 148, 1011.06, 35.40
35701, 965, -189, 1018, 23030, -29120, 66430, -1101, -357, 192, 1011.05, 35.42
35741, 1343, -298, 892, 23030, -76440, 66570, -1110, -333, 214, 1011.02, 35.42
35781, 1024, -756, 911, -7210, -44170, -23100, -1126, -288, 225, 1011.07, 35.42
35821, 777, -477, 938, -61600, 47180, -81270, -1210, -199, 265, 1011.02, 35.42
35861, 440, -83, 1010, -21630, 86170, -113610, -1284, -64, 478, 1011.02, 35.43
35901, -501, 58, 1083, 13510, 26530, -132160, -945, 111, 526, 1011.03, 35.42
35941, -266, 315, 539, -52430, -37590, -131880, -801, 12, 579, 1011.07, 35.43
35981, -567, -71, 761, -64190, -64680, -152390, -649, -73, 528, 1010.99, 35.43
36021, -681, -89, 1118, -29400, -20020, -133210, -624, -121, 453, 1011.02, 35.43
36061, -877, -205, 1148, 5670, -24780, -59570, -643, -141, 429, 1011.00, 35.44
36101, -632, -321, 1120, 1190, 29330, -3850, -642, -133, 420, 1011.02, 35.43
36141, 4, -71, 1046, 7210, 16030, 31710, -630, -145, 433, 1011.04, 35.43
36181, 132, -39, 1021, 30170, -51450, 47180, -624, -150, 436, 1011.07, 35.43
36221, 177, -24, 993, 19180, -45920, 39200, -639, -144, 430, 1011.10, 35.44
36261, 213, -30, 990, -5740, 3780, 7280, -642, -135, 421, 1011.09, 35.44
36301, 174, -67, 1010, -23940, 37170, -20230, -636, -136, 426, 1011.13, 35.43
36341, 119, -74, 1013, -23100, 39830, -27160, -645, -132, 420, 1011.10, 35.43
36381, 103, -67, 1020, -4550, 23450, -15960, -637, -136, 423, 1011.05, 35.44
36421, 113, -52, 1021, 7420, 2590, -350, -639, -133, 423, 1011.07, 35.43
36461, 115, -53, 1017, -9730, 14560, -11270, -652, -141, 418, 1011.10, 35.44
36501, 88, -73, 1015, -7140, 18970, -12390, -652, -138, 418, 1011.08, 35.44
36541, 82, -68, 1017, 4690, 10500, -5040, -651, -145, 427, 1011.07, 35.44
36581, 85, -58, 1024, 11900, 4130, -1330, -654, -139, 435, 1011.03, 35.44
36621, 83, -48, 1023, 4410, 5880, -5530, -648, -129, 433, 1011.01, 35.45
36661, 73, -40, 1022, -2450, 7420, -6930, -645, -135, 417, 1011.06, 35.45
36701, 72, -48, 1022, -2730, 5110, -4620, -652, -130, 424, 1011.07, 35.45
36741, 77, -52, 1021, -1120, -420, 2030, -643, -130, 423, 1011.12, 35.45
36781, 78, -54, 1020, -770, -1820, 5460, -645, -129, 432, 1011.08, 35.46
36821, 78, -53, 1021, -1540, -700, 3710, -643, -132, 427, 1011.06, 35.45
36861, 80, -57, 1019, -3640, 490, 2030, -645, -129, 430, 1011.09, 35.45
36901, 78, -62, 1018, -3150, 840, 1400, -648, -129, 427, 1011.07, 35.46
36941, 77, -59, 1021, -2450, 1750, -2450, -645, -129, 430, 1011.04, 35.46
36981, 79, -64, 1019, -4900, 3640, -7350, -649, -121, 417, 1011.11, 35.46
37021, 78, -64, 1019, -2100, -700, -2030, -643, -126, 421, 1011.08, 35.46
37061, 80, -62, 1019, 280, -4270, 1400, -649, -129, 418, 1011.10, 35.47
37101, 89, -62, 1018, 1050, -3220, 700, -639, -138, 429, 1011.08, 35.46
37141, 91, -63, 1017, -910, 0, -1960, -636, -132, 415, 1011.01, 35.47
37181, 88, -64, 1019, -2170, 3640, -4060, -642, -123, 420, 1011.04, 35.47
37221, 82, -65, 1019, -3010, 4130, -6510, -636, -136, 420, 1011.05, 35.47
37261, 84, -66, 1019, -2660, 1820, -7140, -637, -123, 420, 1011.12, 35.48
37301, 85, -65, 1018, -1050, -420, -5110, -640, -121, 415, 1011.09, 35.48
37341, 88, -66, 1020, -350, -700, -4410, -634, -127, 433, 1011.07, 35.48
37381, 88, -69, 1016, -1890, -70, -7700, -639, -114, 424, 1011.02, 35.49
37421, 92, -65, 1016, 770, -1120, -8400, -627, -117, 436, 1011.04, 35.49
37461, 91, -60, 1021, 1330, -350, -9310, -621, -130, 426, 1011.09, 35.49
37501, 91, -65, 1018, -2520, 700, -13440, -622, -123, 427, 1011.04, 35.49
37541, 91, -65, 1018, -1680, 0, -14630, -618, -114, 426, 1011.10, 35.49
37581, 91, -63, 1018, 280, -1260, -14770, -618, -120, 426, 1011.06, 35.50
37621, 100, -61, 1016, 2380, -3360, -12600, -610, -126, 432, 1011.05, 35.49
37661, 84, -59, 1020, 4480, -3570, -8400, -607, -124, 435, 1011.08, 35.49
37701, 103, -49, 1018, 910, 490, -8820, -622, -124, 438, 1011.07, 35.51
37741, 94, -52, 1019, -1050, 350, -10080, -598, -129, 435, 1011.11, 35.51
37781, 89, -51, 1021, -1190, -1470, -8750, -595, -121, 438, 1011.12, 35.50
37821, 104, -50, 1018, -1750, -2380, -5600, -601, -130, 451, 1011.11, 35.51
37861, 87, -58, 1017, 630, -4620, -910, -588, -123, 454, 1011.07, 35.51
37901, 101, -59, 1018, 4900, -6160, 2660, -592, -120, 462, 1011.05, 35.52
37941, 120, -51, 1017, 3290, -3990, 1750, -589, -114, 463, 1011.05, 35.52
37981, 82, -72, 1019, 1960, -3290, -210, -588, -124, 486, 1011.00, 35.52
38021, 108, -63, 1019, 980, 140, 1680, -577, -112, 487, 1011.05, 35.52
38061, 113, -51, 1014, 3430, -2590, 5810, -585, -108, 499, 1011.01, 35.52
38101, 112, -53, 1017, 2450, 210, 6300, -598, -102, 514, 1011.02, 35.53
38141, 114, -50, 1015, 70, 4970, 6720, -585, -100, 529, 1011.09, 35.53
38181, 136, -39, 1016, 2730, -70, 7840, -597, -88, 549, 1011.01, 35.53
38221, 125, -45, 1019, -2030, 4060, 5600, -607, -75, 555, 1011.02, 35.53
38261, 149, -20, 1014, -1470, 6090, 6160, -630, -54, 571, 1011.08, 35.53
38301, 137, -26, 1011, 3570, 1610, 7630, -643, -46, 588, 1011.02, 35.54
38341, 140, -24, 1013, 3850, 1610, 6720, -639, -33, 582, 1011.03, 35.54
38381, 148, -20, 1012, 3220, 2450, 4620, -661, -27, 601, 1011.01, 35.54
38421, 140, -21, 1014, 770, 4480, 3850, -669, -22, 591, 1011.04, 35.54
38461, 141, -30, 1013, 560, 3640, 3990, -675, -1, 595, 1011.13, 35.55
38501, 135, -36, 1017, 700, 2520, 5180, -687, 1, 607, 1011.11, 35.55
38541, 139, -29, 1013, -910, 1610, 5950, -696, -7, 586, 1011.11, 35.55
38581, 141, -27, 1012, 350, -140, 6930, -693, 7, 595, 1011.10, 35.55
38621, 129, -32, 1015, -840, 1610, 4900, -703, 24, 600, 1011.07, 35.56
38661, 128, -32, 1015, -2800, 3010, 2730, -703, 25, 595, 1011.03, 35.56
38701, 115, -46, 1017, -210, 700, 5040, -703, 22, 597, 1011.06, 35.55
38741, 113, -37, 1016, 350, 280, 5390, -717, 31, 583, 1011.05, 35.56
38781, 105, -37, 1018, 1120, -420, 4830, -717, 37, 583, 1011.06, 35.56
38821, 84, -45, 1020, 70, 1820, 3500, -715, 60, 580, 1011.01, 35.56
38861, 121, -25, 1017, -630, 4340, 3430, -721, 75, 582, 1011.02, 35.57
38901, 120, -28, 1016, 2310, -210, 5740, -729, 63, 580, 1011.02, 35.57
38941, 88, -42, 1018, 1680, -140, 5460, -733, 90, 568, 1011.07, 35.58
38981, 91, -47, 1020, -3360, 6020, 2100, -738, 91, 565, 1011.05, 35.58
39021, 92, -41, 1021, -2730, 5670, 3360, -735, 118, 558, 1011.09, 35.58
39061, 70, -48, 1025, 1190, 280, 8890, -747, 127, 553, 1011.05, 35.58
39101, 30, -48, 1024, 1820, -2030, 11690, -745, 147, 544, 1011.03, 35.58
39141, -9, -50, 1040, -2170, 770, 11550, -745, 181, 541, 1011.05, 35.59
39181, -67, -44, 1034, -5320, 4130, 11270, -753, 205, 564, 1011.13, 35.58
39221, -153, -52, 1043, 3220, 700, 16730, -789, 208, 595, 1011.06, 35.58
39261, -193, -116, 810, 12180, 7630, 18200, -903, 205, 636, 1011.05, 35.59
39301, -386, -9, 1084, -6440, 16380, 17500, -1105, 172, 579, 1011.06, 35.59
39341, -413, -83, 1055, 10850, 14140, 43960, -1183, 91, 432, 1011.06, 35.60
39381, -556, -102, 1066, 36610, 1890, 72450, -1158, -13, 304, 1011.07, 35.60
39421, -585, -152, 1077, 21420, 25970, 74970, -1125, -88, 217, 1011.05, 35.60
39461, -230, -168, 1035, 2240, 34440, 90930, -1108, -156, 198, 1011.06, 35.59
39501, 328, -229, 1017, 15260, 12740, 123270, -1102, -211, 159, 1011.07, 35.60
39541, 989, -147, 1025, 7070, 9170, 132860, -1111, -255, 160, 1011.07, 35.60
39581, 1000, -157, 970, -14000, -13720, 91700, -1108, -280, 151, 1011.10, 35.60
39621, 895, -245, 968, -840, -1750, 49770, -1102, -294, 148, 1011.08, 35.61
39661, 668, -96, 998, 13230, 12670, 23310, -1105, -294, 133, 1011.08, 35.61
39701, 208, 19, 1022, 12950, 18340, -140, -1102, -286, 126, 1011.02, 35.61
39741, 4, 12, 1034, 3990, 22260, -8330, -1114, -285, 130, 1011.04, 35.62
39781, 24, 19, 1027, 2450, 1680, 6860, -1104, -295, 139, 1011.08, 35.62
39821, 22, 7, 1027, -6160, -4620, 16660, -1111, -297, 135, 1011.07, 35.62
39861, 34, -8, 1019, -9450, -7210, 14630, -1104, -298, 135, 1011.04, 35.62
39901, 34, -15, 1017, -6020, -2590, 5250, -1101, -294, 135, 1011.12, 35.62
39941, 36, -2, 1024, 910, 1260, -420, -1099, -295, 138, 1011.10, 35.63
39981, 37, -3, 1024, -2450, 770, 1540, -1095, -298, 145, 1011.11, 35.62
40021, 39, -5, 1024, -3290, -910, 4830, -1105, -298, 139, 1011.03, 35.63
40061, 41, -12, 1020, -3290, -910, 7140, -1108, -295, 136, 1010.98, 35.63
40101, 43, -12, 1021, -700, 770, 6860, -1107, -307, 138, 1011.04, 35.63
40141, 37, -10, 1022, 1610, 4900, 3920, -1104, -298, 136, 1011.10, 35.64
40181, 34, -4, 1024, 3780, 5110, 3080, -1102, -303, 141, 1011.12, 35.63
40221, 34, -2, 1025, 2660, 5320, 2170, -1110, -303, 136, 1011.11, 35.64
40261, 32, -1, 1023, 1680, 6020, 3150, -1107, -304, 124, 1011.12, 35.64
40301, 28, -3, 1022, 2030, 6580, 5600, -1102, -298, 124, 1011.10, 35.64
40341, 26, -2, 1021, 4690, 7560, 8260, -1105, -310, 127, 1011.07, 35.65
40381, 44, -17, 1031, 7420, 6370, 12390, -1096, -306, 141, 1011.03, 35.65
40421, 68, -13, 1024, 1470, 2380, 14070, -1111, -318, 129, 1011.04, 35.65
40461, 112, -35, 1024, -70, 1890, 13930, -1101, -321, 127, 1011.06, 35.65
40501, 186, -62, 1025, 560, 2170, 14280, -1101, -319, 133, 1011.06, 35.65
40541, 276, -76, 1025, -630, 2660, 12740, -1111, -315, 130, 1011.00, 35.66
40581, 349, -78, 1023, -140, 3640, 6300, -1099, -325, 121, 1011.03, 35.66
40621, 376, -101, 1031, 490, 6160, -1960, -1102, -307, 136, 1011.01, 35.66
40661, 432, -138, 1023, 1890, 7000, -9660, -1116, -303, 141, 1011.04, 35.66
40701, 339, -173, 1033, 4970, -1750, -15330, -1120, -288, 150, 1011.05, 35.66
40741, 302, -120, 1027, 700, -6580, -17220, -1131, -261, 166, 1011.02, 35.67
40781, 207, -68, 1024, -3780, -4550, -31010, -1164, -241, 187, 1011.07, 35.66
40821, 87, -40, 1036, -7700, -1680, -42770, -1204, -192, 243, 1010.97, 35.68
40861, 91, -7, 1030, -12460, -6440, -50330, -1258, -123, 334, 1011.00, 35.67
40901, 71, 40, 1009, -19460, -17360, -60620, -1224, -45, 556, 1011.00, 35.68
40941, -87, 38, 1029, -11130, -22540, -74690, -952, 84, 535, 1011.03, 35.67
40981, -146, 88, 562, -10500, -36120, -87780, -898, 58, 538, 1011.02, 35.68
41021, -263, -266, 818, -10990, -25690, -76790, -823, -9, 603, 1011.06, 35.68
41061, -357, -16, 1058, -23240, 7630, -65240, -732, -43, 583, 1011.07, 35.68
41101, -223, 33, 1061, -6930, -4270, -28490, -688, -67, 544, 1011.04, 35.69
41141, -100, 25, 1036, 2030, -12040, -13790, -673, -82, 502, 1011.05, 35.69
41181, -96, -36, 1042, 140, -2730, -20160, -658, -93, 475, 1011.08, 35.69
41221, -69, -65, 1035, -10990, 13160, -27650, -658, -102, 459, 1011.07, 35.69
41261, -67, -97, 1037, -5250, 10430, -22400, -661, -103, 435, 1011.15, 35.69
41301, -3, -62, 1029, 420, 3990, -11270, -661, -87, 442, 1011.15, 35.69
41341, 48, -18, 1022, 980, 2100, -8190, -661, -97, 424, 1011.06, 35.70
41381, 91, -25, 1021, -2380, 8050, -13160, -654, -97, 426, 1011.08, 35.69
41421, 73, -23, 1022, -3920, 9240, -14630, -669, -102, 414, 1011.03, 35.69
41461, 83, -23, 1020, -4060, 8120, -13650, -669, -100, 414, 1011.03, 35.70
41501, 54, -32, 1023, -3080, 6930, -12600, -672, -91, 408, 1011.06, 35.70
41541, 30, -37, 1026, -5880, 10500, -11620, -667, -91, 411, 1011.03, 35.70
41581, 10, -45, 1026, -6020, 9380, -4690, -660, -91, 403, 1011.07, 35.70
41621, 56, -49, 1021, -4200, 3640, 630, -666, -105, 409, 1011.06, 35.70
41661, 67, -46, 1021, -2310, 2660, -1960, -657, -93, 408, 1011.04, 35.70
41701, 65, -45, 1022, -4690, 4760, -2590, -666, -88, 396, 1011.05, 35.71
41741, 57, -54, 1022, -4830, 3990, -1680, -658, -90, 406, 1011.06, 35.70
41781, 58, -54, 1023, -3780, 1820, -1330, -657, -87, 402, 1011.03, 35.71
41821, 59, -58, 1020, -4830, 1400, -3150, -661, -82, 405, 1011.03, 35.71
41861, 60, -59, 1022, -6160, 5040, -6090, -666, -97, 397, 1011.05, 35.71
41901, 50, -67, 1021, -7140, 6300, -5670, -657, -93, 403, 1011.15, 35.71
41941, 47, -69, 1024, -6300, 1890, -5530, -661, -78, 396, 1011.08, 35.72
41981, 48, -72, 1022, -8820, -2870, -9450, -655, -82, 400, 1011.10, 35.72
42021, 66, -85, 1017, -7980, -10010, -9520, -643, -81, 391, 1011.05, 35.72
42061, 80, -78, 1020, -2940, -15050, -5040, -645, -78, 399, 1011.02, 35.73
42101, 96, -92, 1006, -1400, -13580, -700, -634, -73, 403, 1011.07, 35.73
42141, 104, -63, 1022, 8260, -10570, 8540, -643, -93, 406, 1011.07, 35.72
42181, 93, -78, 1020, 6510, -15330, 28630, -643, -88, 397, 1011.02, 35.73
42221, 116, -64, 1024, -11480, 420, 280, -637, -73, 403, 1010.99, 35.73
42261, 119, -85, 1015, -8820, -14350, 26040, -639, -75, 393, 1011.01, 35.73
42301, 128, -104, 1005, -3780, -21560, 41440, -652, -87, 399, 1011.03, 35.73
42341, 138, -102, 1007, -7210, -4900, 21000, -643, -73, 402, 1011.01, 35.73
42381, 126, -112, 1009, -14280, 13300, 4340, -654, -79, 396, 1011.05, 35.74
42421, 121, -121, 1007, -11550, 15750, 6300, -666, -70, 393, 1011.06, 35.74
42461, 107, -119, 1016, -9170, 18900, 10920, -661, -75, 391, 1011.04, 35.75
42501, 86, -139, 1009, -12880, 22680, 14280, -669, -75, 379, 1011.08, 35.74
42541, 66, -145, 1012, -13160, 31430, 5110, -688, -63, 373, 1011.10, 35.75
42581, 52, -155, 1007, -10780, 33040, 4830, -691, -73, 372, 1011.05, 35.75
42621, 26, -160, 1006, -2310, 31990, 14210, -705, -75, 369, 1011.01, 35.75
42661, -1, -148, 1012, 8680, 26670, 26040, -711, -76, 364, 1011.05, 35.75
42701, -28, -128, 1025, 11760, 22050, 25410, -715, -76, 373, 1011.07, 35.75
42741, -46, -128, 1023, 2730, 17150, 9660, -717, -70, 363, 1011.04, 35.76
42781, -44, -132, 1022, -6230, -5950, 7980, -712, -81, 372, 1011.04, 35.76
42821, -29, -149, 1018, -11480, -34020, 7490, -696, -70, 370, 1011.04, 35.76
42861, 11, -149, 1032, -10780, -60690, -3010, -676, -72, 379, 1011.05, 35.77
42901, 96, -153, 1039, -13370, -99400, -700, -640, -72, 384, 1011.10, 35.77
42941, 187, -161, 1038, -7700, -150220, 31710, -601, -73, 396, 1011.15, 35.77
42981, 313, -188, 1036, 7770, -197610, 55160, -556, -64, 405, 1011.06, 35.77
43021, 411, -169, 945, 11060, -214480, 36890, -502, -78, 385, 1011.04, 35.77
43061, 624, -128, 990, 2800, -246260, 48650, -445, -75, 375, 1011.11, 35.78
43101, 629, -334, 798, 15400, -301140, 84350, -387, -58, 349, 1011.08, 35.78
43141, 796, -349, 616, -20650, -299950, 50680, -345, -27, 309, 1011.06, 35.78
43181, 883, -259, 484, -61600, -295330, 25200, -300, 6, 256, 1011.04, 35.79
43221, 933, -349, 223, -66150, -314930, 41860, -261, 28, 184, 1011.12, 35.78
43261, 948, -444, 49, -72800, -347130, 19180, -213, 52, 84, 1011.08, 35.79
43301, 825, -358, -170, -101640, -391090, -11340, -195, 66, -37, 1011.00, 35.79
43341, 633, -169, -507, -116550, -422380, -23590, -186, 70, -156, 1010.98, 35.79
43381, 211, -129, -774, -88690, -419440, -17010, -195, 75, -252, 1010.97, 35.81
43421, -136, -262, -844, -91350, -290500, 8120, -235, 64, -324, 1011.09, 35.80
43461, -249, 268, -957, -102550, -179410, 25550, -265, 57, -375, 1011.10, 35.80
43501, -152, 115, -939, -40320, -138040, 17220, -294, 57, -399, 1011.06, 35.80
43541, -394, 140, -915, 8960, -132720, 45710, -330, 78, -411, 1011.04, 35.81
43581, -567, 58, -866, 53270, -74970, 75530, -352, 103, -399, 1011.05, 35.81
43621, -513, -25, -873, 57400, -3080, 30870, -351, 115, -385, 1011.02, 35.81
43661, -469, -66, -861, 39690, 37590, 9310, -345, 121, -375, 1011.04, 35.81
43701, -460, -28, -894, 24850, 51030, 21980, -331, 141, -351, 1011.03, 35.81
43741, -340, -140, -902, 34230, 77350, 44380, -345, 151, -339, 1011.00, 35.82
43781, -244, -127, -928, 16520, 81690, 33390, -321, 154, -322, 1011.01, 35.81
43821, -153, -78, -964, 2170, 85540, 12530, -306, 154, -309, 1011.03, 35.82
43861, -156, -152, -947, 6160, 71820, 19250, -315, 159, -300, 1011.03, 35.82
43901, 47, -282, -927, -11620, 79380, 30310, -312, 151, -297, 1011.03, 35.83
43941, 128, 50, -1026, -63560, 52570, 25130, -301, 148, -307, 1011.06, 35.83
43981, -2, 69, -959, -23100, -490, 10010, -310, 150, -307, 1011.09, 35.83
44021, -35, 1, -986, 2870, -3430, 1680, -310, 150, -304, 1011.09, 35.83
44061, -33, -27, -979, -140, -140, -4830, -315, 144, -303, 1011.14, 35.83
44101, -49, -19, -981, -980, -2730, -770, -307, 139, -300, 1011.05, 35.83
44141, -5, -49, -973, -560, 420, -2870, -309, 142, -303, 1011.09, 35.83
44181, -63, -18, -976, -2310, -2170, 1960, -313, 144, -307, 1011.07, 35.83
44221, -86, -109, -974, 630, 2520, 3640, -315, 144, -298, 1011.04, 35.83
44261, 18, -16, -977, 1260, 4690, 19810, -322, 150, -304, 1011.01, 35.84
44301, -11, 38, -978, 560, 2450, 38150, -331, 162, -295, 1010.96, 35.85
44341, -20, 41, -994, 4340, 2030, 24570, -339, 168, -295, 1010.97, 35.85
44381, 2, -11, -984, 17780, -5740, 24430, -343, 169, -285, 1011.03, 35.85
44421, -59, -64, -970, 33880, -15470, 25270, -361, 184, -279, 1011.10, 35.84
44461, -63, -206, -939, 27440, -17710, 16310, -351, 187, -288, 1011.04, 35.85
44501, -154, -67, -968, -3080, -19250, 9240, -369, 177, -294, 1011.06, 35.85
44541, -90, -118, -960, -5460, -2940, 11410, -363, 181, -294, 1011.03, 35.85
44581, -89, -19, -980, -12670, 1890, 2660, -361, 183, -294, 1011.03, 35.85
44621, -35, -72, -974, -4410, 10850, 2730, -358, 181, -298, 1010.99, 35.86
44661, -92, -82, -967, -7420, 10500, 1890, -358, 180, -297, 1011.01, 35.86
44701, -20, -43, -982, -11830, 13510, 5180, -354, 175, -294, 1011.11, 35.86
44741, -40, -48, -979, -8470, 770, 7070, -360, 177, -289, 1011.09, 35.86
44781, -69, 0, -986, -2240, -1680, 8470, -357, 180, -295, 1011.01, 35.86
44821, -88, -100, -961, 5180, -4410, 10570, -363, 181, -289, 1011.02, 35.88
44861, -141, 6, -979, -2450, -6440, 14070, -367, 193, -292, 1011.04, 35.88
44901, -98, -43, -972, 6930, 2380, 13580, -378, 184, -294, 1011.07, 35.88
44941, -121, -148, -946, 4200, 8680, 4340, -373, 187, -301, 1011.08, 35.87
44981, -66, -77, -966, -18830, 18200, 2100, -355, 174, -291, 1011.06, 35.88
45021, 2, 75, -1000, -26950, 18690, -4340, -355, 172, -303, 1011.07, 35.88
45061, -27, -16, -978, -6370, 8960, -10850, -360, 172, -298, 1011.06, 35.88
45101, -42, -17, -977, -140, 2870, -9800, -354, 174, -303, 1011.02, 35.88
45141, -46, -12, -978, 3570, 3850, 3500, -336, 178, -303, 1011.04, 35.89
45181, -25, -18, -977, 420, 1400, 5670, -343, 172, -309, 1011.07, 35.89
45221, -31, -17, -978, 1540, 2730, 4480, -355, 180, -298, 1011.13, 35.89
45261, -30, -27, -978, 2450, 3430, 8470, -355, 178, -294, 1011.10, 35.89
45301, -30, -50, -969, 2800, 980, 5810, -348, 178, -291, 1011.04, 35.89
45341, -30, -49, -976, -3430, 770, 5810, -366, 163, -303, 1011.05, 35.90
45381, -49, 17, -978, -7140, -1260, 4620, -351, 175, -304, 1011.08, 35.90
45421, -14, -34, -978, 1260, 2520, 4760, -361, 172, -295, 1011.11, 35.90
45461, -25, -22, -975, 70, 1470, 3570, -361, 174, -291, 1011.03, 35.89
45501, -46, -14, -980, 420, 1540, 6160, -367, 175, -292, 1011.04, 35.91
45541, -52, -36, -976, 2240, -280, 4480, -370, 181, -295, 1011.08, 35.90
45581, -48, -21, -980, 1120, -2730, -560, -355, 178, -301, 1011.09, 35.91
45621, -33, -33, -978, 2450, -4550, -2520, -363, 169, -297, 1011.10, 35.91
45661, -73, -35, -971, 1610, -6440, -3080, -357, 175, -301, 1011.02, 35.91
45701, -31, -46, -978, -630, -2730, -1750, -361, 181, -303, 1011.00, 35.91
45741, -72, -20, -974, -3710, -7280, -3290, -357, 181, -300, 1011.05, 35.91
45781, -45, -20, -979, -1330, -5390, 2450, -361, 186, -300, 1011.09, 35.92
45821, -83, -53, -968, -770, -7770, 1470, -360, 181, -298, 1011.10, 35.92
45861, -7, 19, -989, -4620, -7840, 7070, -369, 175, -301, 1011.08, 35.92
45901, 102, 86, -1005, 4480, -22400, 25900, -384, 189, -309, 1011.11, 35.92
45941, -331, -36, -927, 4410, -45500, 45850, -399, 187, -318, 1011.07, 35.93
45981, -204, -89, -959, -280, -2450, 28420, -402, 187, -318, 1011.02, 35.92
46021, -128, -127, -961, 140, 6860, 9450, -414, 184, -321, 1011.00, 35.92
46061, -129, 56, -964, -19110, -70, 18060, -417, 189, -324, 1011.01, 35.93
46101, -135, 62, -929, -6650, 31290, 57330, -424, 204, -325, 1011.00, 35.94
46141, 4, -65, -964, -20440, 49700, 37940, -421, 178, -334, 1011.00, 35.93
46181, -125, 299, -973, 2800, 21770, 15050, -427, 196, -334, 1011.02, 35.93
46221, -69, -163, -975, 35000, 18410, 17080, -427, 204, -316, 1011.04, 35.94
46261, -54, -86, -972, 15260, 9450, 7560, -426, 198, -316, 1011.03, 35.94
46301, -28, -54, -977, 4410, 7700, 6020, -427, 199, -324, 1011.03, 35.93
46341, -42, -41, -981, 3850, 6300, 1050, -418, 201, -309, 1011.04, 35.94
46381, -15, -29, -972, 1330, 5180, -2100, -420, 202, -316, 1011.03, 35.94
46421, -41, -27, -977, 1120, 980, -3570, -418, 204, -321, 1011.07, 35.94
46461, -45, -41, -975, -350, 2030, -1960, -411, 198, -310, 1011.02, 35.94
46501, -11, -20, -976, -1610, 1190, -1750, -427, 190, -318, 1011.03, 35.94
46541, -31, -25, -977, -350, 1330, -4130, -414, 199, -322, 1011.00, 35.94
46581, -38, -29, -976, -280, 770, -3710, -405, 204, -315, 1010.97, 35.95
46621, -27, -27, -976, -560, -280, -6230, -418, 204, -312, 1011.00, 35.94
46661, -34, -26, -977, -420, 700, 630, -412, 204, -318, 1011.03, 35.95
46701, -43, -27, -976, -560, 420, 1540, -411, 201, -319, 1011.00, 35.94
46741, -35, -29, -975, -700, 140, -6650, -409, 202, -315, 1011.01, 35.95
46781, -66, 0, -978, -2310, -2170, -11620, -406, 189, -312, 1011.04, 35.95
46821, -10, -55, -973, 630, 2940, -1610, -400, 199, -315, 1011.05, 35.95
46861, -34, -24, -978, 490, 1750, 1960, -411, 201, -322, 1011.04, 35.94
46901, -17, -37, -971, -140, 1190, 0, -397, 195, -313, 1011.02, 35.95
46941, -75, -69, -962, 1330, -280, -24780, -396, 183, -318, 1011.03, 35.96
46981, 5, 16, -992, -3290, 630, -46970, -366, 193, -325, 1011.07, 35.96
47021, -19, -47, -970, -630, 560, -24290, -367, 178, -318, 1011.06, 35.95
47061, -39, -27, -976, -420, 1190, -490, -370, 177, -316, 1011.05, 35.97
47101, -35, -27, -977, -280, 1400, 1960, -364, 190, -318, 1011.05, 35.97
47141, -35, -28, -976, -280, 1400, 1890, -375, 178, -313, 1011.08, 35.97
47181, -36, -28, -976, -210, 1330, 1890, -370, 186, -310, 1011.03, 35.97
47221, -36, -28, -977, -280, 1400, 1960, -367, 190, -322, 1011.06, 35.97
47261, -36, -28, -976, -280, 1400, 1960, -378, 186, -319, 1011.04, 35.97
47301, -36, -28, -976, -210, 1400, 1960, -361, 187, -321, 1011.04, 35.97
47341, -36, -28, -976, -210, 1400, 1960, -367, 175, -319, 1011.04, 35.97
47381, -36, -28, -976, -210, 1400, 1960, -373, 183, -315, 1011.02, 35.98
47421, -36, -28, -976, -210, 1400, 1960, -372, 186, -307, 1011.06, 35.98
47461, -36, -28, -976, -210, 1400, 1960, -373, 181, -315, 1011.08, 35.99
47501, -35, -28, -976, -210, 1400, 1960, -370, 190, -316, 1011.09, 35.99
47541, -36, -28, -977, -210, 1400, 1960, -375, 183, -319, 1011.11, 36.00
47581, -37, -30, -974, -210, 1400, 1960, -366, 186, -318, 1011.10, 35.99
47621, -35, -27, -977, -280, 1400, 1960, -370, 178, -321, 1011.10, 35.99
47661, -35, -27, -978, -210, 1400, 1960, -369, 186, -312, 1011.08, 35.99
47701, -37, -29, -976, -210, 1400, 1960, -369, 189, -316, 1011.10, 36.00
47741, -52, -21, -976, -350, 1050, 1960, -376, 186, -315, 1011.09, 35.99
47781, 37, -68, -974, -630, 980, 2310, -379, 187, -321, 1011.07, 36.01
47821, 27, -24, -983, -2240, -3080, 29330, -394, 198, -324, 1011.07, 36.01
47861, -134, -22, -968, 700, 3430, 45990, -390, 202, -307, 1010.98, 36.00
47901, -102, 14, -980, 1400, 5040, 17080, -399, 193, -312, 1011.02, 36.00
47941, -28, -47, -975, 1050, 11900, 10010, -399, 207, -313, 1010.99, 36.01
47981, 21, -5, -974, -2870, 9800, 8960, -396, 199, -310, 1011.03, 36.01
48021, -11, -24, -974, 70, 910, 10360, -396, 195, -321, 1011.02, 36.02
48061, -42, -38, -976, 1960, -4830, 9590, -406, 207, -309, 1011.03, 36.01
48101, -53, -29, -979, 840, -1820, 5950, -406, 204, -315, 1011.02, 36.02
48141, -45, -33, -977, -1260, 5390, 2450, -406, 205, -313, 1011.06, 36.02
48181, -5, -18, -974, -2380, 8120, 2520, -402, 192, -316, 1011.03, 36.03
48221, -20, -26, -976, -1190, 4340, 3500, -417, 196, -316, 1011.06, 36.03
48261, 15, -9, -973, -560, 1820, 6090, -414, 204, -322, 1011.09, 36.02
48301, -12, -19, -975, 2240, -4970, 10360, -423, 204, -312, 1011.09, 36.04
48341, -57, -52, -978, 2310, -7770, 12670, -418, 207, -312, 1011.09, 36.04
48381, -51, -23, -978, -630, -1540, 11130, -436, 201, -309, 1011.08, 36.03
48421, -36, -27, -976, -280, 1190, 10990, -427, 208, -304, 1011.05, 36.03
48461, -50, -25, -978, -280, 2450, 9030, -418, 202, -312, 1011.01, 36.04
48501, -12, -30, -970, -1050, 8330, 6160, -424, 207, -316, 1011.02, 36.04
48541, -34, -19, -982, -1330, 3010, 4270, -426, 201, -312, 1011.08, 36.04
48581, -33, -26, -974, -140, -840, 2800, -433, 210, -313, 1011.05, 36.04
48621, -40, -29, -978, -5530, 6720, 1120, -426, 195, -321, 1011.04, 36.04
48661, -17, -9, -978, 1120, 2940, -2870, -418, 205, -318, 1011.06, 36.05
48701, -33, -35, -976, 3990, -2240, -1260, -429, 211, -304, 1011.06, 36.05
48741, -20, -33, -970, -2800, 1120, -490, -421, 208, -313, 1011.09, 36.05
48781, -33, -17, -979, -7420, -140, 0, -418, 204, -322, 1011.03, 36.05
48821, -39, -11, -978, -7910, -910, 1540, -415, 189, -318, 1011.08, 36.05
48861, -24, -12, -975, -3850, 5180, 2240, -421, 204, -318, 1011.11, 36.06
48901, -20, -12, -976, -2170, 3850, -980, -424, 198, -325, 1011.13, 36.06
48941, -27, -10, -971, 210, 560, -1610, -403, 205, -316, 1011.11, 36.06
48981, -31, -6, -983, -70, -630, -2100, -409, 195, -313, 1011.04, 36.06
49021, -32, -8, -982, -840, 2100, -1260, -415, 196, -309, 1011.02, 36.06
49061, -22, 4, -980, -4620, -280, 5390, -424, 195, -318, 1010.95, 36.06
49101, -33, 0, -985, 3430, -3640, 9730, -423, 205, -313, 1010.93, 36.07
49141, -60, -7, -963, 10570, -3920, 7840, -427, 207, -315, 1010.98, 36.07
49181, -24, -44, -976, 6580, 280, 5810, -412, 207, -316, 1011.02, 36.07
49221, -41, -28, -974, 490, 1400, 3010, -427, 207, -318, 1011.06, 36.08
49261, -22, -33, -979, -4270, 6790, 1540, -424, 201, -309, 1011.06, 36.08
49301, -24, -19, -976, -3920, 6230, 140, -420, 204, -310, 1011.00, 36.08
49341, -40, 8, -977, 1050, 70, -420, -421, 193, -315, 1011.06, 36.08
49381, -50, -27, -969, 3640, 1050, -980, -414, 198, -313, 1011.05, 36.10
49421, -12, -17, -978, -3430, 9100, -910, -417, 205, -312, 1011.08, 36.09
49461, -21, -17, -984, -5040, 2380, 420, -418, 211, -309, 1011.06, 36.09
49501, -38, -34, -972, 1190, -1400, -910, -427, 199, -313, 1011.08, 36.10
49541, -9, -5, -976, 4550, 2590, -2660, -411, 205, -310, 1011.11, 36.10
49581, -40, -12, -977, 1680, -1540, -70, -417, 204, -312, 1011.05, 36.11
49621, -38, -18, -977, -1330, 2730, 1820, -409, 205, -304, 1011.04, 36.11
49661, -16, -14, -977, -2660, 7210, 2940, -405, 201, -310, 1011.05, 36.11
49701, -22, -18, -976, -1680, 4620, 2380, -406, 196, -304, 1011.04, 36.11
49741, -17, -16, -976, -1120, 2660, 1890, -409, 202, -312, 1011.02, 36.11
49781, -18, -6, -980, 420, 1260, 1190, -411, 198, -309, 1011.04, 36.12
49821, -31, -32, -968, 4130, -700, 490, -412, 202, -310, 1011.05, 36.13
