,accX,accY,accZ,gyroX,gyroY,gyroZ
0,-0.222656,-0.587402,0.615723,24.291992,-46.112061,31.463623
1,-0.293396,-0.562378,0.582703,68.687439,-126.098633,79.086304
2,-0.319458,-0.560974,0.57312,71.517944,-133.636475,82.382202
3,-0.339539,-0.559265,0.556702,75.98877,-141.891479,87.19635
4,-0.352295,-0.559998,0.540588,79.284668,-145.355225,89.675903
5,-0.379272,-0.568665,0.511108,83.000183,-148.948669,92.384338
6,-0.399536,-0.564819,0.487183,86.654663,-152.954102,94.818115
7,-0.414001,-0.560486,0.448914,91.491699,-157.203674,96.580505
8,-0.421631,-0.554932,0.406738,98.464966,-161.567688,98.213196
9,-0.443237,-0.5578,0.359985,113.59405,-170.99762,102.455139
10,-0.51825,-0.548889,0.266785,118.46923,-175.621033,104.141235
11,-0.540161,-0.540894,0.234802,123.36731,-179.222107,104.324341
12,-0.54718,-0.546875,0.216309,128.10516,-182.044983,104.446411
13,-0.552002,-0.546326,0.182495,132.38525,-185.211182,106.933594
14,-0.584778,-0.610901,0.142334,133.05664,-184.158325,112.030029
15,-0.620789,-0.588562,0.127991,134.52148,-184.013367,117.752075
16,-0.656433,-0.583313,0.099548,133.44574,-184.761047,119.789124
17,-0.665039,-0.590393,0.097961,136.37542,-182.70874,119.026184
18,-0.682495,-0.586914,0.032898,139.5874,-173.126221,117.927551
19,-0.689087,-0.571655,0.0271,137.27569,-170.524597,116.996765
20,-0.697083,-0.572083,0.014954,133.28552,-169.715881,116.05835
21,-0.697449,-0.591248,0.004578,127.81524,-167.884827,117.843628
22,-0.677551,-0.587708,0.017273,125.25177,-167.396545,121.124268
23,-0.660583,-0.591675,0.015503,123.06213,-166.679382,124.610901
24,-0.619812,-0.538757,0.005615,120.23925,-167.617798,125.038147
25,-0.567444,-0.498657,0.014893,119.6289,-171.37146,120.605469
26,-0.565125,-0.489258,0.010681,122.60437,-171.707153,119.087219
27,-0.578125,-0.478271,0.021667,124.6643,-171.638489,117.988586
28,-0.604736,-0.453735,0.047363,126.44195,-171.302795,116.134644
29,-0.61615,-0.446228,0.02063,130.78308,-169.98291,108.856201
30,-0.626282,-0.433105,0.052795,133.30078,-169.540405,105.72052
31,-0.637268,-0.413818,0.079102,136.97052,-169.441223,103.881836
32,-0.651062,-0.386841,0.079346,140.52581,-169.837952,102.561951
33,-0.668823,-0.379578,0.080688,143.34869,-171.096802,101.516724
34,-0.666687,-0.349609,0.078247,142.89093,-182.853699,96.252441
35,-0.595459,-0.340393,0.161621,142.02117,-188.293457,93.063354
36,-0.560913,-0.341614,0.199219,145.38574,-191.574097,92.155457
37,-0.540649,-0.335022,0.21637,151.26037,-193.435669,94.779968
38,-0.486084,-0.31958,0.242615,154.14428,-196.395874,98.426819
39,-0.495667,-0.253967,0.259521,158.09631,-200.180054,107.452393
40,-0.488403,-0.229797,0.308167,164.42871,-204.849243,121.643066
41,-0.565918,-0.184265,0.349243,166.1911,-223.449707,139.816284
42,-0.566895,-0.16571,0.481201,161.36169,-230.957031,147.277832
43,-0.555054,-0.118591,0.418823,154.97589,-219.734192,159.27887
44,-0.576599,-0.134094,0.340759,145.98083,-248.680115,176.635742
45,-0.578918,-0.103699,0.402588,151.64184,-242.645264,182.899475
46,-0.610474,-0.038879,0.28009,153.25927,-250.0,178.344727
47,-0.699158,-0.070679,0.97583,153.64074,-236.26709,162.849426
48,-0.750488,-0.038147,0.358826,167.86193,-209.251404,149.742126
49,-0.846252,-0.205017,0.629639,121.4981,-250.0,114.364624
50,-0.698669,-0.220154,0.470337,104.23278,-239.608765,102.088928
51,-0.619507,-0.109863,0.435852,97.763062,-237.281799,87.867737
52,-0.5401,0.006592,0.596008,109.28344,-250.0,75.782776
53,-0.479126,-0.006104,0.724182,121.85668,-250.0,69.633484
54,-0.52124,-0.114685,0.6875,123.45123,-250.0,71.960449
55,-0.610962,-0.108765,0.642517,121.8872,-250.0,81.825256
56,-0.698792,-0.091675,0.666382,131.91223,-250.0,89.179993
57,-0.719543,-0.071716,0.825684,134.71221,-250.0,83.900452
58,-0.644653,-0.058105,0.848511,136.16943,-250.0,77.941895
59,-0.616943,-0.041443,0.864319,137.71057,-249.107361,76.431274
60,-0.634216,-0.022583,0.872253,140.91491,-243.972778,75.98877
61,-0.631104,-0.013611,0.887085,146.69036,-240.509033,71.258545
62,-0.622498,-0.005615,0.892517,146.3623,-237.365723,69.114685
63,-0.642029,0.006348,0.850647,145.56884,-234.687805,66.604614
64,-0.654175,-0.002197,0.86377,144.45495,-231.636047,63.896179
65,-0.666443,0.001831,0.869873,140.51818,-226.654053,61.553955
66,-0.693726,0.006714,0.856018,134.41467,-220.809937,59.799194
67,-0.719299,0.006714,0.862915,122.93243,-207.084656,57.655334
68,-0.744019,0.0177,0.88739,115.8905,-198.364258,58.418274
69,-0.788391,0.037109,0.919617,108.34503,-190.299988,60.539246
70,-0.789612,0.062622,0.931152,101.02081,-181.70929,63.560486
71,-0.780396,0.076233,0.938171,93.711853,-173.377991,67.5354
72,-0.766113,0.086487,0.940735,86.540222,-164.894104,71.762085
73,-0.710022,0.116211,0.924927,74.455261,-150.779724,78.674316
74,-0.669861,0.115173,0.922852,69.488525,-144.508362,81.65741
75,-0.630005,0.112671,0.911255,64.712524,-138.542175,83.953857
76,-0.582458,0.11322,0.907776,59.22699,-132.781982,84.411621
77,-0.523499,0.113525,0.893982,52.284241,-127.52533,83.007813
78,-0.469299,0.120422,0.874146,38.726807,-117.843628,76.980591
79,-0.362549,0.172974,0.85199,32.737732,-113.41095,71.968079
80,-0.328369,0.160583,0.840698,28.503418,-109.87854,64.842224
81,-0.285645,0.188232,0.860718,26.96991,-108.070374,55.702209
82,-0.278259,0.242249,0.87085,31.059265,-108.222961,32.691956
83,-0.26886,0.267578,0.853394,41.908264,-108.970642,22.613525
84,-0.22052,0.30658,0.793945,63.446045,-102.653503,11.787415
85,-0.247192,0.333557,0.833496,90.530396,-97.717285,-1.853943
86,-0.268372,0.372437,0.865417,117.59185,-96.351624,-14.671326
87,-0.302368,0.355957,0.906128,144.37866,-93.475342,-19.203186
88,-0.279053,0.350586,1.000366,168.19,-87.730408,-19.165039
89,-0.28418,0.42804,0.975403,186.43951,-75.332642,-15.106201
90,-0.309326,0.539001,1.028625,200.11138,-74.890137,-4.142761
91,-0.295959,0.500549,1.041992,197.98278,-80.986023,-0.808716
92,-0.238525,0.406982,1.261292,190.71197,-80.856323,6.538391
93,-0.293884,0.383606,1.121887,174.11804,-71.937561,22.80426
94,-0.339539,0.361816,1.106506,98.7854,-98.960876,73.455811
95,-0.419739,0.329407,1.033936,53.337097,-114.631653,88.027954
96,-0.373535,0.243286,0.923828,12.939453,-129.241943,90.461731
97,-0.329956,0.216736,0.837646,-18.53179,-139.556885,87.791443
98,-0.222473,0.186707,0.872375,-35.49194,-141.853333,82.298279
99,-0.211792,0.222168,0.78595,-31.8222,-125.572205,74.386597
100,-0.17157,0.237366,0.802368,-19.7525,-121.673584,69.778442
101,-0.135986,0.23645,0.888855,-1.838684,-116.943359,65.658569
102,-0.115662,0.273438,0.903076,23.017883,-113.288879,61.782837
103,-0.135681,0.297729,0.911926,50.392151,-107.917786,58.288574
104,-0.132019,0.312683,0.915039,93.231201,-95.89386,53.878784
105,-0.115112,0.348999,0.959229,105.97991,-89.439392,53.565979
106,-0.108887,0.399048,0.991394,115.02838,-81.65741,54.260254
107,-0.067749,0.442139,1.155945,116.37878,-67.184448,54.763794
108,-0.081299,0.50415,1.134521,103.01208,-56.159973,56.129456
109,-0.054077,0.525574,1.159607,44.128418,-63.789368,56.381226
110,0.004761,0.524353,1.150452,11.566162,-73.249817,57.243347
111,0.02655,0.505188,1.128052,-14.77813,-84.640503,59.310913
112,0.020081,0.518677,1.076538,-31.32629,-96.237183,61.088562
113,0.021667,0.55249,1.020935,-38.16986,-105.415344,60.264587
114,-0.092529,0.650085,0.860046,-19.71435,-112.503052,47.203064
115,-0.100281,0.653687,0.799866,-4.386902,-116.096497,33.027649
116,-0.09906,0.696838,0.833496,10.131836,-115.585327,14.122009
117,-0.055359,0.470093,0.929199,27.580261,-112.815857,-3.547668
118,-0.035645,0.381287,0.98407,49.972534,-109.954834,-16.014099
119,0.02771,0.377441,1.026428,71.006775,-105.522156,-28.076172
120,0.097717,0.415649,1.141418,86.212158,-99.365234,-38.299561
121,0.103882,0.395813,1.16156,79.353333,-88.562012,-55.854797
122,0.163391,0.349243,1.235352,60.127258,-88.302612,-61.965942
123,0.195801,0.29895,1.241638,37.940979,-88.661194,-63.095093
124,0.204468,0.252625,1.224976,17.036438,-88.973999,-58.586121
125,0.189331,0.218506,1.189636,-0.511169,-86.143494,-50.376892
126,0.185059,0.197998,1.179077,-15.2893,-73.455811,-29.73175
127,0.204102,0.181152,1.155029,-12.89367,-62.553406,-19.27948
128,0.229797,0.209167,1.135437,-5.325317,-49.6521,-10.719299
129,0.261108,0.226868,1.137878,4.91333,-36.659241,-4.91333
130,0.319641,0.233215,1.157288,14.480591,-24.414063,-1.091003
131,0.371521,0.226929,1.183167,24.765015,3.494263,26.45874
132,0.327881,0.296509,1.188416,22.529602,7.331848,33.607483
133,0.230774,0.289673,1.182373,19.302368,9.651184,39.360046
134,0.178894,0.2901,1.175476,15.853882,10.116577,41.854858
135,0.159119,0.269775,1.164795,12.207031,8.506775,41.175842
136,0.158386,0.247864,1.146301,8.155823,4.882813,38.330078
137,0.151733,0.195129,1.141724,4.745483,-0.114441,32.295227
138,0.167236,0.18573,1.071838,2.929688,-6.599426,23.475647
139,0.188416,0.200073,1.011719,-1.373291,-14.083862,1.419067
140,0.184692,0.213379,1.013489,1.533508,-15.388489,-10.780334
141,0.214844,0.232361,1.016724,8.598328,-14.48822,-21.751404
142,0.271057,0.246704,1.046265,18.043518,-10.894775,-29.335022
143,0.307434,0.245178,1.096741,41.778564,0.938416,-30.235291
144,0.331238,0.248779,1.159241,51.559448,8.18634,-26.786804
145,0.374207,0.251404,1.288147,58.570862,12.969971,-21.92688
146,0.383606,0.292847,1.288635,61.99646,13.938904,-16.403198
147,0.376099,0.317505,1.257385,59.692383,13.504028,-12.733459
148,0.372192,0.329041,1.238281,37.193298,18.356323,-10.879517
149,0.356323,0.418152,1.258301,23.796082,20.553589,-10.322571
150,0.346436,0.462097,1.276672,10.543823,21.842957,-9.681702
151,0.345642,0.482239,1.291748,-1.968384,23.078918,-8.918762
152,0.340576,0.485596,1.280396,-13.05389,24.909973,-7.637024
153,0.332825,0.508545,1.26532,-22.65167,26.435852,-7.041931
154,0.247864,0.45813,1.2276,-31.02111,28.48053,-8.529663
155,0.239929,0.442688,1.215088,-40.45105,33.035278,-22.171021
156,0.206787,0.386902,1.140808,-40.96221,35.02655,-29.075623
157,0.198181,0.368713,1.115723,-42.84668,39.123535,-33.493042
158,0.194397,0.352539,1.114258,-43.45703,50.315857,-33.401489
159,0.227112,0.334656,1.079224,-42.18292,55.19104,-29.373169
160,0.234314,0.327576,1.059204,-41.74804,58.540344,-23.06366
161,0.227661,0.349426,1.028381,-42.26684,59.745789,-14.572144
162,0.209778,0.35498,0.987305,-44.16656,58.71582,-6.187439
163,0.189392,0.364502,0.946167,-47.38616,54.901123,0.099182
164,0.162231,0.365234,0.913391,-51.38397,49.102783,3.913879
165,0.069397,0.322388,0.840576,-59.35668,37.086487,5.584717
166,0.096863,0.313293,0.830933,-62.52288,34.698486,6.248474
167,0.098511,0.279358,0.85199,-62.24823,34.667969,7.987976
168,0.103821,0.254822,0.850098,-55.92346,35.110474,10.33783
169,0.102295,0.235474,0.806396,-46.72241,37.246704,12.34436
170,0.072266,0.25293,0.795166,-27.66418,42.396545,14.198303
171,0.055603,0.217468,0.775818,-18.26477,44.654846,14.801025
172,0.05426,0.20752,0.781616,-10.4599,46.653748,15.090942
173,0.071228,0.194519,0.784607,-4.623413,47.325134,14.533997
174,0.097351,0.191345,0.783508,-0.549316,43.052673,12.161255
175,0.148438,0.172058,0.813477,-1.205444,39.44397,9.841919
176,0.159363,0.213135,0.767517,-4.592896,34.767151,9.765625
177,0.129211,0.202759,0.77124,-10.02502,29.075623,12.283325
178,0.097168,0.260742,0.778625,-14.06097,22.872925,16.235352
179,0.054626,0.265015,0.759399,-14.67895,14.610291,20.530701
180,0.024353,0.273193,0.732788,-14.93072,6.225586,24.604797
181,-0.004883,0.196594,0.753662,-19.61517,-5.111694,30.937195
182,0.006897,0.194275,0.752075,-20.86639,-8.331299,33.470154
183,0.016174,0.199158,0.745056,-22.04895,-9.857178,35.331726
184,0.018311,0.203064,0.74469,-22.96447,-10.604858,36.735535
185,0.033325,0.183228,0.749512,-22.17865,-11.901855,37.742615
186,0.060791,0.173889,0.747559,-17.64679,-11.436462,38.406372
187,0.064636,0.193787,0.740601,-13.68713,-10.452271,38.68103
188,0.026978,0.208679,0.783569,-6.591797,-9.57489,38.902283
189,0.031433,0.221802,0.797363,0.991821,-8.674622,39.176941
190,0.033264,0.254761,0.841003,11.245728,-6.43158,40.939331
191,0.034851,0.276428,0.851196,14.389038,-5.79834,42.358398
192,0.03894,0.295898,0.855652,15.197754,-5.279541,43.998718
193,0.047974,0.299988,0.86261,14.556885,-5.706787,45.333862
194,0.059204,0.291321,0.869385,13.328552,-6.68335,46.401978
195,0.070251,0.287598,0.870178,11.833191,-7.102966,47.233582
196,0.080322,0.28302,0.865234,11.131287,-6.469727,47.50061
197,0.086182,0.281311,0.862732,14.23645,-1.869202,45.24231
198,0.140076,0.244507,0.868774,17.189026,1.014709,42.518616
199,0.169128,0.240479,0.908508,20.645142,4.829407,40.214539
200,0.180359,0.234619,0.926392,25.230408,7.484436,38.726807
201,0.187134,0.234558,0.925964,28.22113,9.170532,37.498474
202,0.189697,0.230591,0.928711,27.854919,10.795593,36.338806
203,0.18866,0.238281,0.927307,22.30072,10.681152,36.216736
204,0.178162,0.269836,0.899414,17.730713,8.560181,37.414551
205,0.151794,0.338989,0.837463,14.190674,4.78363,39.024353
206,0.160767,0.344666,0.80658,12.832642,0.053406,40.95459
207,0.182312,0.321838,0.797607,12.832642,-4.310608,42.572021
208,0.196838,0.300232,0.802246,14.129639,-7.614136,43.861389
209,0.207825,0.288025,0.809509,22.331238,-11.268616,43.449402
210,0.18158,0.286377,0.854797,27.603149,-10.498047,41.511536
211,0.156433,0.297485,0.887512,32.363892,-8.384705,38.749695
212,0.14093,0.301758,0.914001,35.675049,-5.203247,35.591125
213,0.131165,0.299194,0.937927,37.002563,-1.602173,32.272339
214,0.121399,0.306152,0.9505,36.247253,1.846313,28.968811
215,0.125183,0.305237,0.961121,29.251099,5.653381,23.750305
216,0.129517,0.306946,0.955933,24.002075,5.0354,22.468567
217,0.13562,0.30304,0.948547,18.52417,3.27301,22.010803
218,0.142822,0.296082,0.930054,10.658264,-0.610352,23.239136
219,0.152161,0.296997,0.922485,9.628296,-0.854492,25.123596
220,0.159119,0.301575,0.927307,11.108398,-0.572205,27.359009
221,0.158142,0.305298,0.929749,14.801025,0.25177,29.693604
222,0.166504,0.310364,0.934814,19.78302,1.77002,32.440186
223,0.158752,0.306519,0.935547,25.337219,3.692627,35.713196
224,0.135071,0.296936,0.932312,34.820557,7.698059,45.11261
225,0.155823,0.298767,0.933533,37.223816,10.261536,49.781799
226,0.166626,0.284973,0.924438,39.0625,12.130737,53.642273
227,0.153931,0.264404,0.922302,40.496826,13.587952,56.869507
228,0.173218,0.254211,0.913147,42.304993,15.388489,61.61499
229,0.104309,0.518799,0.937317,33.851624,-9.269714,55.046082
230,0.104858,0.522217,0.936218,27.503967,-12.290955,50.094604
231,0.110229,0.518555,0.938904,24.589539,-13.717651,46.714783
232,0.125732,0.504028,0.938171,22.529602,-14.610291,43.106079
233,0.137329,0.482788,0.946838,21.331787,-14.755249,39.573669
234,0.139221,0.467224,0.964661,21.751404,-11.894226,34.27887
235,0.132874,0.460449,0.992859,22.079468,-9.33075,33.203125
236,0.131531,0.46875,0.995361,21.621704,-6.813049,33.622742
237,0.134399,0.484863,0.989685,19.805908,-4.737854,35.476685
238,0.146301,0.505676,0.992798,16.662598,-3.288269,38.497925
239,0.165161,0.525818,0.990234,13.023376,-2.220154,42.137146
240,0.18158,0.526672,0.981934,9.605408,-2.044678,46.051025
241,0.192017,0.520142,0.970642,4.112244,-2.990723,51.445007
242,0.201355,0.53302,0.969543,2.746582,-3.067017,52.650452
243,0.220581,0.552856,0.968872,2.174377,-2.494812,53.436279
244,0.241394,0.568787,0.959534,2.502441,-1.365662,53.787231
245,0.221741,0.531982,0.950073,4.745483,1.205444,53.871155
246,0.2052,0.517456,0.936768,6.68335,3.952026,51.559448
247,0.228577,0.497131,0.935364,7.148743,7.110596,47.775269
248,0.255188,0.502747,0.933411,8.18634,9.132385,43.693542
249,0.233398,0.498047,0.909302,7.9422,11.253357,37.719727
250,0.271606,0.470764,0.900085,6.958008,10.620117,36.277771
251,0.285706,0.476379,0.880127,5.882263,9.857178,34.202576
252,0.282532,0.487427,0.846497,4.402161,8.140564,32.493591
253,0.296021,0.494019,0.846924,2.952576,5.645752,31.059265
254,0.313049,0.486877,0.838867,2.01416,2.616882,29.518127
255,0.335388,0.507507,0.822937,0.495911,-0.617981,27.47345
256,0.341797,0.508728,0.823547,-3.639221,-7.736206,23.826599
257,0.286865,0.499695,0.81134,-5.088806,-12.634277,21.04187
258,0.327637,0.470215,0.817627,-5.661011,-18.569946,18.302917
259,0.327881,0.466553,0.80127,-6.546021,-19.958496,19.294739
260,0.321838,0.476624,0.796753,-8.270264,-20.133972,20.927429
261,0.313477,0.486633,0.783997,-9.590149,-20.256042,23.4375
262,0.308472,0.491333,0.766174,-10.00213,-20.271301,26.031494
263,0.301514,0.498962,0.76532,-9.147644,-19.584656,28.083801
264,0.293945,0.512634,0.763367,-6.385803,-18.470764,29.579163
265,0.29425,0.518005,0.76825,3.40271,-17.448425,31.135559
266,0.260193,0.539673,0.804382,16.197205,-15.7547,28.068542
267,0.256409,0.526306,0.794312,18.2724,-16.181946,25.878906
268,0.238159,0.537964,0.797791,18.791199,-17.227173,22.689819
269,0.249573,0.498169,0.806824,18.52417,-18.318176,18.783569
270,0.282593,0.47937,0.819458,18.203735,-18.600464,14.770508
271,0.300903,0.452454,0.836975,19.744873,-18.501282,10.002136
272,0.333679,0.44696,0.838135,19.035339,-17.990112,9.277344
273,0.372253,0.439209,0.855164,17.875671,-17.776489,9.414673
274,0.389343,0.434998,0.848633,16.410828,-17.662048,9.933472
275,0.385559,0.434326,0.842407,13.679504,-16.311646,10.08606
276,0.361755,0.454163,0.835083,11.329651,-13.534546,9.605408
277,0.369812,0.466797,0.826172,13.511658,-3.509521,6.30188
278,0.362366,0.483032,0.835754,18.806458,2.410889,4.394531
279,0.36261,0.498657,0.861938,25.810242,9.735107,2.487183
280,0.366699,0.50769,0.907959,34.072876,17.585754,1.083374
281,0.378784,0.498779,0.938232,42.419434,24.085999,1.419067
282,0.336182,0.456482,0.921143,48.156738,27.809143,2.479553
283,0.306519,0.480286,0.852234,57.121277,35.339355,-4.920959
284,0.312134,0.526367,0.858887,60.165405,40.740967,-8.552551
285,0.304443,0.528809,0.845215,62.149048,43.205261,-11.314392
286,0.289612,0.524109,0.838623,61.676025,43.708801,-14.900208
287,0.266907,0.532043,0.833618,55.122375,42.121887,-22.445679
288,0.270874,0.531372,0.826355,49.957275,40.039063,-23.551941
289,0.274536,0.529175,0.816101,43.479919,36.91864,-22.766113
290,0.270142,0.539063,0.803711,36.010742,33.294678,-20.698547
291,0.288696,0.530579,0.805542,27.839661,28.6026,-16.899109
292,0.326111,0.516602,0.786194,13.877869,20.469666,-8.712769
293,0.33844,0.507202,0.774475,9.849548,17.295837,-4.508972
294,0.313965,0.490845,0.758545,7.995605,14.854431,-0.915527
295,0.295898,0.47583,0.750977,8.43811,13.038635,1.174927
296,0.283752,0.475647,0.740234,10.719299,11.993408,2.197266
297,0.273865,0.484863,0.741699,13.801575,11.695862,2.738953
298,0.263977,0.4953,0.750183,20.126343,12.443542,3.356934
299,0.207825,0.576538,0.768066,22.659302,13.397217,3.234863
300,0.183167,0.600159,0.783813,24.765015,14.862061,2.792358
301,0.183716,0.590149,0.800659,26.603699,16.38031,1.525879
302,0.19812,0.587463,0.815308,27.938843,18.058777,-0.640869
303,0.212524,0.582336,0.829712,30.433655,20.828247,-6.706238
304,0.219727,0.559265,0.83905,31.158447,21.530151,-10.040283
305,0.217407,0.55011,0.841492,31.181335,21.942139,-13.267517
306,0.21936,0.540894,0.83844,30.578613,22.018433,-16.25061
307,0.222046,0.532593,0.83606,29.312134,21.789551,-18.699646
308,0.221069,0.522949,0.830811,27.763367,21.018982,-20.553589
309,0.221252,0.513428,0.811829,23.597717,17.700195,-22.888184
310,0.215088,0.519226,0.799316,21.270752,15.769958,-23.05603
311,0.206238,0.524048,0.789185,19.340515,13.717651,-22.628784
312,0.209229,0.515198,0.77948,17.692566,12.062073,-21.469116
313,0.205017,0.50824,0.767944,16.212463,10.116577,-20.141602
314,0.197205,0.500671,0.760925,15.296936,7.843018,-18.798828
315,0.193909,0.504395,0.75,13.999939,2.807617,-15.861511
316,0.179993,0.526611,0.731079,13.175964,-0.50354,-14.068604
317,0.16748,0.530884,0.723083,11.611938,-8.735657,-9.864807
318,0.157043,0.553284,0.723083,10.986328,-12.809753,-8.079529
319,0.15918,0.569153,0.73999,10.894775,-16.00647,-6.43158
320,0.165588,0.576599,0.758301,11.421204,-18.104553,-5.119324
321,0.175293,0.586365,0.779053,12.359619,-18.920898,-4.745483
322,0.183289,0.593811,0.802246,13.214111,-18.371582,-5.195618
323,0.193848,0.592529,0.831177,13.61084,-16.731262,-5.882263
324,0.196777,0.584595,0.856445,12.695313,-11.695862,-8.056641
325,0.194519,0.578064,0.885498,10.734558,-9.796143,-9.147644
326,0.192322,0.575623,0.895569,7.553101,-8.361816,-10.490417
327,0.193909,0.577209,0.899292,3.860474,-7.591248,-11.573792
328,0.199646,0.577881,0.899963,0.198364,-7.240295,-12.374878
329,0.208191,0.57489,0.89624,-3.593445,-7.102966,-12.748718
330,0.209595,0.578369,0.885681,-9.979248,-8.285522,-11.795044
331,0.212891,0.581543,0.871826,-11.6806,-8.682251,-10.375977
332,0.206665,0.585815,0.864319,-12.16888,-8.621216,-8.476257
333,0.203857,0.580383,0.854919,-11.48986,-8.682251,-6.591797
334,0.204834,0.574463,0.849182,-10.2005,-8.43811,-4.875183
335,0.210449,0.568665,0.852112,-6.622314,-7.507324,-1.846313
336,0.215698,0.561096,0.855652,-5.317688,-7.30896,-0.518799
337,0.229614,0.547729,0.865784,-5.020142,-7.080078,0.701904
338,0.235718,0.53949,0.873047,-5.28717,-7.194519,2.113342
339,0.239258,0.539001,0.874695,-6.141663,-7.354736,3.456116
340,0.244629,0.536133,0.87207,-7.537842,-7.56073,4.714966
341,0.243652,0.534607,0.867432,-9.239197,-7.43866,5.836487
342,0.238708,0.53717,0.858704,-11.52801,-6.881714,7.751465
343,0.240906,0.538269,0.843628,-11.58142,-6.004333,8.44574
344,0.243958,0.538208,0.840759,-10.58197,-4.585266,8.987427
345,0.250732,0.539124,0.838379,-8.895874,-2.76947,9.254456
346,0.259888,0.542297,0.831909,-3.890991,1.914978,9.765625
347,0.277222,0.533569,0.838379,-0.709534,3.440857,9.674072
348,0.280029,0.526123,0.833313,1.930237,4.402161,9.681702
349,0.280518,0.513123,0.833191,3.639221,4.547119,9.529114
350,0.285645,0.501648,0.827026,4.15802,3.616333,9.399414
351,0.287109,0.488159,0.823303,2.418518,-0.701904,8.987427
352,0.301208,0.473267,0.808228,0.88501,-3.509521,8.956909
353,0.304443,0.476563,0.804626,-0.343323,-6.378174,8.850098
354,0.305725,0.467773,0.797607,-0.50354,-9.315491,9.162903
355,0.304749,0.472534,0.79187,0.1297,-12.123108,9.536743
356,0.303284,0.466309,0.790344,1.075745,-14.312744,10.192871
357,0.299377,0.469971,0.792664,2.571106,-16.044617,10.879517
358,0.298035,0.480652,0.801025,5.554199,-16.876221,11.817932
359,0.279236,0.474792,0.859192,5.485535,-14.953613,11.497498
360,0.255859,0.484314,0.890137,4.753113,-11.444092,10.33783
361,0.238647,0.493652,0.916016,3.204346,-6.881714,9.162903
362,0.227417,0.498108,0.936951,-0.259399,-1.670837,8.010864
363,0.237915,0.490723,0.946838,-12.68005,6.744385,2.006531
364,0.270508,0.487427,0.89386,-21.94213,8.499146,-3.417969
365,0.25354,0.473694,0.893372,-32.55462,8.628845,-7.087708
366,0.248962,0.462769,0.879578,-41.95404,6.92749,-9.178162
367,0.258911,0.465698,0.842163,-50.49133,4.302979,-10.742188
368,0.26532,0.477295,0.819092,-60.87493,-2.662659,-13.664246
369,0.284241,0.512085,0.793945,-60.92834,-6.240845,-14.717102
370,0.300659,0.52478,0.802368,-57.76977,-9.513855,-15.350342
371,0.302979,0.522278,0.817078,-50.77362,-12.397766,-15.975952
372,0.319275,0.536926,0.864258,-40.06958,-15.357971,-16.197205
373,0.290466,0.504883,0.937195,-25.40588,-16.38031,-16.914368
374,0.257263,0.501648,0.978394,-5.653381,-19.058228,-15.907288
375,0.210876,0.480408,0.941467,29.907227,-27.34375,-8.636475
376,0.202759,0.468689,0.944641,37.643433,-30.509949,-6.17981
377,0.219055,0.471436,0.95282,45.509338,-39.18457,-2.075195
378,0.226379,0.515625,0.917847,45.890808,-42.381287,0.144958
379,0.219543,0.520874,0.908142,46.134949,-43.914795,1.625061
380,0.236145,0.507813,0.883667,48.118591,-44.380188,2.120972
381,0.254578,0.537231,0.85321,51.147461,-44.197083,1.724243
382,0.258301,0.559875,0.842773,54.710388,-42.930603,1.068115
383,0.258423,0.57843,0.842041,59.532166,-40.771484,0.061035
384,0.300842,0.637024,0.803162,70.892334,-39.31427,-4.402161
385,0.293335,0.635071,0.804077,75.187683,-38.909912,-8.178711
386,0.292297,0.640686,0.808044,78.971863,-38.444519,-12.535095
387,0.299988,0.639282,0.815125,82.214355,-37.910461,-16.914368
388,0.309937,0.635559,0.823608,86.265564,-37.513733,-25.848389
389,0.326538,0.62738,0.830078,86.662292,-38.452148,-30.067444
390,0.318604,0.570801,0.836548,85.823059,-39.924622,-34.385681
391,0.29895,0.549683,0.841064,83.709717,-40.863037,-38.475037
392,0.269714,0.540405,0.830688,80.039978,-41.603088,-41.946411
393,0.250427,0.526367,0.818054,67.626953,-41.45813,-45.99762
394,0.234314,0.498047,0.8125,59.883118,-39.855957,-46.211243
395,0.18158,0.441711,0.797668,52.070618,-37.055969,-45.509338
396,0.157471,0.430664,0.779175,44.067383,-33.256531,-44.166565
397,0.140686,0.431091,0.756775,35.629272,-28.961182,-42.09137
398,0.135986,0.439819,0.732483,26.855469,-24.604797,-39.352417
399,0.147156,0.44873,0.711121,17.784119,-21.034241,-36.216736
400,0.167297,0.463623,0.690674,8.964539,-18.295288,-32.821655
401,0.281799,0.527283,0.641235,-12.47406,-15.563965,-24.452209
402,0.340332,0.496277,0.660217,-18.31054,-21.133423,-23.750305
403,0.263062,0.539124,0.636597,-19.21081,-23.246765,-24.833679
404,0.238647,0.596313,0.615601,-20.87402,-25.154114,-27.839661
405,0.279724,0.601563,0.623413,-23.39935,-27.824402,-32.180786
406,0.287354,0.613708,0.654053,-25.53558,-31.616211,-36.445618
407,0.282288,0.627991,0.644714,-25.99334,-34.866333,-38.368225
408,0.301086,0.64032,0.629211,-27.46582,-37.67395,-40.290833
409,0.292908,0.615051,0.642273,-28.73992,-41.290283,-42.228699
410,0.281799,0.579529,0.644775,-28.18298,-43.792725,-44.059753
411,0.26947,0.549072,0.640503,-24.42169,-45.188904,-47.561646
412,0.248108,0.51062,0.647827,-23.29254,-45.249939,-48.370361
413,0.225342,0.483154,0.657104,-23.34594,-45.608521,-48.034668
414,0.198242,0.455444,0.661255,-24.82605,-45.608521,-46.592712
415,0.177124,0.436218,0.664917,-27.23693,-45.272827,-44.273376
416,0.164429,0.420959,0.671875,-30.9906,-44.006348,-40.504456
417,0.138977,0.380249,0.677856,-44.96002,-41.954041,-30.731201
418,0.138306,0.361572,0.67511,-54.05426,-41.511536,-25.253296
419,0.139526,0.340088,0.664734,-63.52996,-41.221619,-19.622803
420,0.145447,0.322021,0.650085,-72.01385,-41.099548,-13.870239
421,0.1521,0.30658,0.632446,-78.96423,-40.870667,-7.797241
422,0.163025,0.291748,0.615356,-84.27429,-40.458679,-1.625061
423,0.174438,0.273254,0.607544,-91.25518,-39.833069,10.627747
424,0.197388,0.245728,0.603088,-94.07043,-40.046692,16.548157
425,0.212219,0.221313,0.618774,-97.00012,-40.168762,22.354126
426,0.226624,0.159241,0.682617,-99.65515,-38.887024,28.373718
427,0.180481,0.178955,0.697815,-100.7614,-34.873962,34.797668
428,0.185425,0.210388,0.71228,-105.8425,-27.000427,40.565491
429,0.225342,0.26062,0.782166,-109.8709,-23.254395,42.175293
430,0.24939,0.292969,0.798035,-113.7924,-20.16449,43.701172
431,0.273315,0.318909,0.81311,-118.3471,-17.250061,44.532776
432,0.298401,0.346741,0.824951,-122.0932,-15.12146,44.288635
433,0.36908,0.423584,0.833069,-123.1765,-14.11438,40.924072
434,0.393433,0.449829,0.842773,-120.0027,-14.152527,38.146973
435,0.419983,0.478088,0.848572,-114.1433,-14.785767,34.645081
436,0.434692,0.506042,0.862976,-106.7504,-15.571594,30.464172
437,0.435913,0.523621,0.881042,-89.43939,-18.081665,19.760132
438,0.444702,0.52887,0.911804,-80.49774,-20.41626,14.625549
439,0.435791,0.503296,0.914368,-72.34191,-23.719788,11.154175
440,0.387939,0.458618,0.910583,-65.72723,-27.153015,9.819031
441,0.347839,0.42926,0.915955,-59.63897,-30.014038,8.659363
442,0.319824,0.40094,0.917419,-45.70007,-33.164978,7.270813
443,0.286377,0.318176,0.908875,-38.10119,-33.226013,7.225037
444,0.275146,0.274475,0.900391,-31.25,-32.897949,7.324219
445,0.268372,0.236389,0.890015,-26.25274,-32.501221,7.18689
446,0.258484,0.21405,0.877991,-23.54431,-31.837463,6.629944
447,0.250183,0.20575,0.865601,-22.70507,-30.792236,5.607605
448,0.247253,0.205933,0.859375,-22.30072,-29.678345,4.264832
449,0.241455,0.209412,0.850098,-20.20263,-26.519775,1.358032
450,0.233337,0.218567,0.855774,-18.69964,-24.139404,-0.076294
451,0.234192,0.22052,0.860413,-16.68548,-21.484375,-1.617432
452,0.237122,0.224426,0.874023,-14.72473,-18.356323,-3.112793
453,0.244507,0.200134,0.8927,-12.87841,-14.595032,-4.753113
454,0.281311,0.182861,0.916504,-10.23101,-6.706238,-13.252258
455,0.266724,0.228943,0.972961,-6.225586,-2.693176,-15.693665
456,0.285461,0.302979,0.942078,0.778198,-3.265381,-16.395569
457,0.303345,0.369995,0.921509,4.501343,-4.28772,-17.539978
458,0.289063,0.408813,0.941162,5.958557,-4.692078,-19.699097
459,0.284241,0.440796,0.938904,12.069702,-6.202698,-24.024963
460,0.272278,0.445129,0.883728,12.840271,-5.523682,-25.756836
461,0.255554,0.422974,0.858337,12.275696,-4.318237,-26.649475
462,0.252075,0.390686,0.822571,10.993958,-3.631592,-26.802063
463,0.262329,0.353027,0.797302,7.537842,-2.26593,-26.535034
464,0.271851,0.320007,0.801819,2.349854,0.312805,-26.359558
465,0.285461,0.306519,0.81488,-5.386353,5.66864,-27.34375
466,0.33728,0.333313,0.848755,-9.140015,7.850647,-28.091431
467,0.366699,0.367859,0.869568,-12.55798,8.94165,-28.747559
468,0.398438,0.410522,0.881836,-15.31982,8.346558,-29.472351
469,0.42395,0.444519,0.881592,-17.47131,6.393433,-29.983521
470,0.437317,0.466187,0.874695,-19.18029,3.242493,-30.456543
471,0.44696,0.470764,0.859863,-19.18792,-5.180359,-30.380249
472,0.449524,0.451599,0.817993,-17.35687,-9.498596,-29.579163
473,0.454041,0.442627,0.805786,-14.34326,-13.153076,-28.373718
474,0.462952,0.437195,0.799011,-10.10131,-16.00647,-27.069092
475,0.470581,0.440247,0.800598,-5.187988,-18.226624,-26.062012
476,0.483215,0.452148,0.809998,5.012512,-22.018433,-25.886536
477,0.515991,0.479248,0.840637,8.81958,-24.429321,-26.405334
478,0.528809,0.490479,0.846741,11.21521,-27.610779,-26.931763
479,0.520752,0.512573,0.833862,12.115479,-31.692505,-27.809143
480,0.54126,0.478333,0.844666,11.764526,-37.002563,-29.708862
481,0.553284,0.475098,0.849182,11.413574,-42.137146,-31.013489
482,0.562866,0.489929,0.842651,11.444092,-46.653748,-31.234741
483,0.577698,0.49469,0.834778,12.374878,-52.238464,-29.685974
484,0.582703,0.502319,0.839172,12.390137,-52.55127,-27.854919
485,0.592285,0.513184,0.860901,11.985779,-51.704407,-26.023865
486,0.587524,0.52063,0.877197,11.634827,-50.163269,-24.093628
487,0.569214,0.519409,0.887756,11.33728,-47.996521,-22.155762
488,0.529785,0.543884,0.880615,10.047913,-45.043945,-21.92688
489,0.530823,0.512939,0.825378,7.278442,-44.174194,-23.574829
490,0.539673,0.475891,0.839661,3.494263,-43.830872,-26.023865
491,0.546082,0.520813,0.870972,0.137329,-44.921875,-30.654907
492,0.539612,0.537476,0.898315,-1.953125,-44.113159,-32.371521
493,0.531128,0.544495,0.922668,-4.135132,-43.72406,-33.454895
494,0.518066,0.540405,0.927856,-6.29425,-44.059753,-33.477783
495,0.505615,0.535583,0.913757,-9.338379,-44.395447,-33.065796
496,0.450378,0.561035,0.893433,-13.21411,-44.448853,-32.478333
497,0.405579,0.567566,0.832703,-16.24298,-44.517517,-33.065796
498,0.415222,0.531555,0.789185,-21.56066,-40.245056,-37.399292
499,0.450928,0.510681,0.769043,-19.96612,-37.857056,-40.649414
500,0.465393,0.517517,0.766907,-15.34271,-35.667419,-43.701172
501,0.474365,0.527161,0.769104,-9.918213,-33.630371,-46.127319
502,0.470581,0.537537,0.78064,-5.348206,-32.165527,-47.50061
503,0.462463,0.548462,0.792419,-2.189636,-32.150269,-47.470093
504,0.449402,0.553406,0.791687,-1.235962,-33.340454,-46.661377
505,0.437317,0.556702,0.79071,-4.203796,-35.736084,-45.196533
506,0.427002,0.556885,0.785889,-5.256653,-36.026001,-44.830322
507,0.422729,0.561646,0.77124,-4.608154,-35.240173,-45.051575
508,0.427185,0.559265,0.766663,-2.349854,-33.39386,-45.845032
509,0.434448,0.556702,0.76062,0.785828,-30.99823,-47.058105
510,0.440735,0.561707,0.759033,5.218506,-27.946472,-50.262451
511,0.451416,0.572327,0.776611,5.599976,-27.435303,-52.116394
512,0.456299,0.578186,0.78009,4.974365,-27.839661,-53.794861
513,0.462036,0.583801,0.778503,3.807068,-28.800964,-55.000305
514,0.457214,0.598755,0.778381,2.700806,-29.579163,-55.557251
515,0.463074,0.603333,0.773682,1.846313,-29.533386,-55.282593
516,0.485291,0.61084,0.7677,1.556396,-27.320862,-54.130554
517,0.492798,0.611572,0.770508,2.006531,-25.772095,-53.93219
518,0.501404,0.610046,0.776733,2.311707,-24.078369,-54.153442
519,0.509399,0.612427,0.779419,2.342224,-22.506714,-54.573059
520,0.519836,0.646606,0.786255,2.26593,-21.316528,-54.382324
521,0.550659,0.651306,0.787415,4.440308,-20.828247,-47.393799
522,0.576355,0.649597,0.795654,6.103516,-20.118713,-43.243408
523,0.590698,0.645508,0.802185,6.17218,-19.523621,-39.009094
524,0.563049,0.644104,0.816467,4.432678,-21.232605,-29.083252
525,0.536011,0.631104,0.817932,2.639771,-21.980286,-24.757385
526,0.524841,0.61908,0.814148,0.228882,-21.888733,-21.011353
527,0.514282,0.612366,0.804382,-1.609802,-20.927429,-17.814636
528,0.50647,0.605835,0.792603,-2.937317,-19.309998,-14.900208
529,0.502869,0.594971,0.781128,-3.761292,-16.929626,-12.496948
530,0.498474,0.584229,0.770081,-4.898071,-14.358521,-10.33783
531,0.491699,0.575745,0.762939,-6.324768,-11.634827,-8.468628
532,0.488892,0.569214,0.754639,-8.117676,-9.155273,-7.087708
533,0.479858,0.550659,0.726379,-14.81628,-2.220154,-3.005981
534,0.464111,0.540222,0.711121,-15.51055,-0.846863,-1.960754
535,0.461853,0.540283,0.700134,-15.89202,0.549316,-0.701904
536,0.45929,0.538818,0.696167,-16.12091,1.945496,0.808716
537,0.457947,0.537048,0.687195,-15.95306,3.204346,2.372742
538,0.455322,0.535706,0.685913,-15.39611,4.53949,3.997803
539,0.450745,0.532959,0.683777,-14.1983,5.706787,5.867004
540,0.444031,0.527527,0.688843,-11.97814,7.8125,9.681702
541,0.435852,0.520081,0.699402,-11.39068,8.453369,11.405945
542,0.437256,0.518677,0.700378,-11.24572,8.613586,13.023376
543,0.436401,0.514771,0.702209,-11.74163,8.102417,14.205933
544,0.437439,0.512634,0.701477,-12.35199,7.118225,15.029907
545,0.440002,0.509583,0.706909,-13.76342,4.936218,16.143799
546,0.443848,0.50647,0.704407,-14.09912,3.585815,16.479492
547,0.439209,0.511536,0.70752,-14.61029,1.998901,16.685486
548,0.439941,0.509155,0.702698,-14.90783,-0.007629,16.403198
549,0.436523,0.508057,0.690979,-15.55633,-5.218506,15.083313
550,0.437256,0.504761,0.688049,-15.46478,-7.873535,14.045715
551,0.438354,0.504578,0.685303,-15.15197,-10.536194,12.85553
552,0.438171,0.506104,0.684753,-14.12963,-12.939453,11.642456
553,0.440552,0.505554,0.687683,-12.68005,-14.984131,10.116577
554,0.443848,0.501404,0.69342,-9.010315,-17.860413,6.744385
555,0.454285,0.493042,0.69696,-7.324219,-18.806458,5.104065
556,0.461121,0.490295,0.696228,-5.874634,-19.393921,3.456116
557,0.465271,0.487061,0.696472,-4.776001,-19.828796,1.930237
558,0.470642,0.476624,0.697449,-3.768921,-19.393921,-0.297546
559,0.474426,0.471191,0.700073,-3.227234,-18.341064,-0.984192
560,0.486755,0.466003,0.707886,-2.471924,-17.150879,-1.243591
561,0.496704,0.465027,0.711365,-1.64032,-15.571594,-1.174927
562,0.502136,0.460876,0.713196,-0.869751,-13.923645,-0.946045
563,0.507935,0.458191,0.712646,-0.289917,-11.955261,-0.534058
564,0.509338,0.456543,0.71759,0.190735,-9.651184,0.198364
565,0.510254,0.447571,0.723755,0.88501,-6.820679,1.350403
566,0.515137,0.433655,0.728394,2.075195,-0.579834,3.974915
567,0.513977,0.432251,0.731201,2.235413,2.388,5.317688
568,0.51416,0.425659,0.729797,2.258301,5.279541,6.477356
569,0.518677,0.417542,0.727539,2.26593,7.911682,7.400513
570,0.519531,0.411072,0.726135,2.067566,10.185242,8.018494
571,0.522827,0.405457,0.724915,2.601624,13.809204,8.552551
572,0.524414,0.399536,0.721863,3.448486,15.090942,8.460999
573,0.520447,0.395569,0.720032,4.570007,16.067505,8.232117
574,0.516479,0.389465,0.721558,5.683899,17.01355,7.843018
575,0.514587,0.385315,0.721558,7.522583,18.470764,6.797791
576,0.513733,0.380981,0.723022,8.514404,19.119263,6.111145
577,0.510498,0.37207,0.724976,9.605408,19.981384,5.439758
578,0.509155,0.365906,0.724731,11.169434,20.9198,4.486084
579,0.506714,0.361633,0.723816,12.863159,22.148132,3.53241
580,0.5047,0.356445,0.725281,16.304016,25.115967,1.976013
581,0.499939,0.349426,0.725342,18.173218,26.626587,1.434326
582,0.497925,0.340759,0.720337,19.828796,27.946472,0.740051
583,0.499817,0.332642,0.715637,21.080017,29.22821,0.198364
584,0.498291,0.328613,0.723633,23.406982,32.455444,-0.312805
585,0.494019,0.325867,0.731201,25.047302,34.454346,-0.297546
586,0.491089,0.320679,0.750122,26.374817,36.445618,0.022888
587,0.489258,0.31604,0.757996,26.901245,38.635254,0.579834
588,0.489807,0.310181,0.76709,26.672363,40.69519,1.281738
589,0.490662,0.306335,0.769592,25.947571,42.869568,2.471924
590,0.488708,0.301453,0.779968,24.917603,45.066833,3.822327
591,0.484924,0.299072,0.782776,24.040222,47.523499,5.28717
592,0.4776,0.296021,0.78656,22.270203,52.322388,8.209229
593,0.476501,0.290344,0.783813,20.851135,54.428101,9.590149
594,0.474304,0.283325,0.77948,19.058228,56.182861,10.925293
595,0.472168,0.278809,0.782532,17.234802,57.518005,12.466431
596,0.47168,0.272827,0.778137,15.541077,58.410645,14.213562
597,0.471863,0.270569,0.774658,14.160156,58.944702,15.861511
598,0.470764,0.269714,0.773926,11.962891,58.662415,19.195557
599,0.456909,0.266907,0.767822,11.459351,57.975769,21.034241
600,0.449036,0.26947,0.7677,11.535645,57.098389,22.781372
601,0.438477,0.267822,0.768188,11.886597,56.373596,24.353027
602,0.422485,0.260742,0.767334,12.466431,55.618286,25.856018
603,0.408875,0.252502,0.769226,12.489319,54.8172,27.290344
604,0.395752,0.250854,0.773743,10.917664,52.947998,29.800415
605,0.377869,0.257996,0.788147,10.269165,51.689148,30.303955
606,0.377197,0.259705,0.794739,10.070801,50.247192,29.983521
607,0.376953,0.259277,0.797485,10.246277,48.75946,29.251099
608,0.376343,0.25708,0.799744,10.597229,47.302246,28.198242
609,0.37146,0.247253,0.815002,10.368347,44.578552,26.100159
610,0.370117,0.244324,0.820923,9.422302,43.380737,25.32196
611,0.367126,0.243164,0.828857,8.033752,42.022705,24.780273
612,0.361694,0.25647,0.838745,6.29425,40.672302,24.414063
613,0.348145,0.274902,0.840515,4.486084,38.909912,24.31488
614,0.342529,0.276367,0.837097,0.62561,34.980774,24.337769
615,0.314026,0.296692,0.832214,-1.312256,33.660889,24.726868
616,0.303345,0.299133,0.829163,-2.304077,32.989502,25.375366
617,0.309143,0.299316,0.821411,-2.929688,32.608032,25.611877
618,0.310242,0.309387,0.821899,-3.974915,32.272339,25.421143
619,0.310974,0.323975,0.828186,-5.065918,30.021667,24.246216
620,0.316345,0.359131,0.829407,-5.706787,28.297424,23.239136
621,0.317871,0.376038,0.832458,-5.737305,26.023865,22.224426
622,0.320801,0.396118,0.833862,-4.867554,23.323059,21.003723
623,0.319153,0.417053,0.842529,-3.387451,20.721436,19.523621
624,0.31897,0.433838,0.848389,-1.022339,18.257141,17.730713
625,0.319885,0.451843,0.863098,2.006531,15.663147,15.678406
626,0.315857,0.46759,0.890503,8.415222,10.643005,11.299133
627,0.318359,0.469604,0.90332,11.520386,8.529663,8.94928
628,0.322693,0.469482,0.915222,14.282227,6.629944,6.362915
629,0.333008,0.46698,0.929077,16.334534,4.852295,3.494263
630,0.342407,0.465942,0.932739,17.196655,2.853394,0.572205
631,0.352417,0.464539,0.941528,15.022278,-2.037048,-4.714966
632,0.372864,0.460205,0.943359,12.191772,-5.027771,-6.881714
633,0.381226,0.460144,0.936035,8.590698,-8.293152,-8.590698
634,0.388123,0.4646,0.930237,4.508972,-11.398315,-9.773254
635,0.391052,0.472595,0.918274,0.648499,-14.320374,-10.551453
636,0.392212,0.481995,0.901733,-4.951477,-19.142151,-10.71167
637,0.374512,0.493652,0.879272,-6.202698,-20.462036,-10.139465
638,0.357849,0.498047,0.869263,-6.469727,-21.080017,-9.117126
639,0.344421,0.501099,0.863159,-6.309509,-21.141052,-8.110046
640,0.332275,0.506287,0.859741,-6.55365,-21.003723,-6.011963
641,0.325684,0.510132,0.851807,-7.69043,-21.659851,-5.599976
642,0.314087,0.515076,0.82605,-9.490967,-22.605896,-5.661011
643,0.308105,0.50708,0.807861,-11.52038,-23.719788,-6.095886
644,0.307861,0.500977,0.79895,-12.74108,-25.108337,-6.782532
645,0.309875,0.507446,0.787842,-11.45172,-28.495789,-9.315491
646,0.31604,0.508911,0.759888,-9.552002,-30.395508,-11.077881
647,0.320496,0.512207,0.747864,-7.202148,-32.218933,-12.954712
648,0.328613,0.518677,0.741821,-4.631042,-33.889771,-14.961243
649,0.335205,0.522278,0.739136,-1.419067,-35.667419,-16.822815
650,0.34668,0.52594,0.738342,2.540588,-37.788391,-18.356323
651,0.355103,0.51178,0.742004,10.787964,-42.930603,-20.820618
652,0.357178,0.497925,0.751404,14.633179,-45.631409,-21.331787
653,0.359802,0.486084,0.761047,18.013,-48.461914,-21.141052
654,0.359497,0.472778,0.768372,20.530701,-51.078796,-20.370483
655,0.363892,0.457275,0.775574,22.094727,-53.634644,-19.561768
656,0.36731,0.444153,0.77771,22.750854,-56.030273,-18.692017
657,0.367615,0.4375,0.778687,23.071289,-59.104919,-17.13562
658,0.353394,0.41803,0.782166,23.475647,-59.387207,-16.662598
659,0.348511,0.404236,0.788696,23.521423,-58.837891,-16.403198
660,0.340698,0.397827,0.797119,22.956848,-57.662964,-16.166687
661,0.335632,0.39386,0.804321,21.835327,-56.358337,-16.25824
662,0.336853,0.393738,0.810913,18.218994,-53.93219,-17.39502
663,0.342834,0.388672,0.812927,16.166687,-52.879333,-18.623352
664,0.355835,0.369141,0.809753,14.396667,-51.559448,-20.301819
665,0.364258,0.352295,0.804321,13.175964,-49.720764,-21.881104
666,0.37207,0.335632,0.800964,12.535095,-47.416687,-23.376465
667,0.400146,0.290466,0.787476,12.252808,-38.208008,-25.756836
668,0.411438,0.282104,0.767639,12.10022,-31.593323,-25.8255
669,0.415466,0.287476,0.766052,12.443542,-28.030396,-25.596619
670,0.419861,0.290649,0.762573,13.198853,-24.429321,-25.238037
671,0.425354,0.291992,0.758423,14.518738,-20.622253,-24.887085
672,0.427979,0.293762,0.760437,16.281128,-16.578674,-24.513245
673,0.433838,0.299744,0.766113,18.501282,-12.107849,-24.307251
674,0.436462,0.297607,0.768555,20.889282,-7.675171,-24.261475
675,0.435974,0.289673,0.776245,22.605896,0.343323,-24.185181
676,0.438049,0.280579,0.790771,21.766663,4.104614,-24.055481
677,0.439331,0.273499,0.79248,20.126343,7.522583,-24.055481
678,0.442566,0.270874,0.796387,17.707825,10.421753,-24.154663
679,0.444946,0.268433,0.794922,14.73999,13.275146,-24.475098
680,0.444214,0.2677,0.788086,8.781433,17.829895,-25.093079
681,0.445862,0.256104,0.768433,5.767822,19.592285,-25.131226
682,0.443176,0.255676,0.758301,2.754211,20.904541,-24.711609
683,0.439514,0.254028,0.745911,0.389099,21.835327,-24.200439
684,0.438049,0.257507,0.734253,-2.952576,22.705078,-23.101807
685,0.4375,0.261658,0.72345,-4.005432,22.949219,-22.544861
686,0.420288,0.280457,0.710632,-4.737854,22.972107,-22.171021
687,0.4104,0.294373,0.712463,-5.157471,22.895813,-21.987915
688,0.402466,0.307983,0.70813,-5.371094,22.605896,-22.010803
689,0.397705,0.32251,0.705322,-5.355835,22.010803,-22.369385
690,0.392822,0.3396,0.703125,-5.607605,21.263123,-23.384094
691,0.390808,0.353027,0.703918,-5.577087,20.515442,-24.81842
692,0.388,0.360474,0.703735,-4.53186,19.676208,-28.930664
693,0.378845,0.365112,0.704163,-4.081726,19.767761,-31.333923
694,0.373596,0.369324,0.707275,-3.898621,20.065308,-33.630371
695,0.225647,0.546143,0.896973,4.302979,-31.87561,-60.157776
696,0.208496,0.698975,0.680786,-38.23089,-37.788391,-61.332703
697,0.226929,0.698792,0.656128,-37.78839,-37.30011,-60.295105
698,0.242554,0.682556,0.645569,-36.8576,-36.628723,-59.112549
699,0.257568,0.678833,0.632324,-35.84289,-36.2854,-57.395935
700,0.274109,0.677673,0.614136,-35.24017,-38.360596,-53.283691
701,0.306213,0.670044,0.583679,-35.19439,-40.504456,-50.514221
702,0.31012,0.652893,0.562134,-33.76007,-41.946411,-47.615051
703,0.33374,0.648438,0.561768,-31.67724,-41.740417,-44.85321
704,0.346375,0.645264,0.561218,-24.67346,-39.543152,-37.162781
705,0.377502,0.655151,0.560974,-20.02716,-38.024902,-32.836914
706,0.359741,0.682495,0.580078,-8.003235,-33.462524,-25.405884
707,0.34668,0.676819,0.598267,-0.213623,-30.49469,-22.384644
708,0.322937,0.660889,0.60614,8.003235,-26.20697,-20.15686
709,0.300476,0.632568,0.620178,22.544861,-13.389587,-18.882751
710,0.252747,0.621643,0.663452,27.641296,-5.683899,-19.744873
711,0.22522,0.625,0.688477,31.242371,1.945496,-21.537781
712,0.200867,0.637573,0.709412,32.608032,9.338379,-24.398804
713,0.184448,0.646729,0.736938,31.974792,15.762329,-28.137207
714,0.173706,0.651917,0.766174,29.693604,21.194458,-31.654358
715,0.155212,0.661682,0.799072,26.626587,25.749207,-34.01947
716,0.138123,0.655151,0.826782,22.323608,34.294128,-34.439087
717,0.169006,0.668213,0.837891,21.179199,37.414551,-33.317566
718,0.178406,0.658081,0.844788,20.332336,40.031433,-31.12793
719,0.178528,0.637939,0.85498,20.6604,42.160034,-28.388977
720,0.182129,0.618896,0.862122,24.124146,45.86792,-20.584106
721,0.199829,0.598511,0.870239,25.512695,47.386169,-16.494751
722,0.204834,0.597412,0.881042,26.542664,47.988892,-12.702942
723,0.212158,0.599182,0.884033,27.267456,47.302246,-9.559631
724,0.208191,0.596497,0.881836,27.648926,45.562744,-7.18689
725,0.196838,0.590942,0.872559,26.351929,39.56604,-3.738403
726,0.193542,0.593262,0.866699,23.735046,35.331726,-2.365112
727,0.189209,0.594055,0.859924,20.622253,30.693054,-1.098633
728,0.194092,0.596497,0.845825,17.425537,25.657654,0.289917
729,0.195496,0.603638,0.825989,14.457703,16.471863,3.471375
730,0.195923,0.604004,0.803406,15.258789,13.114929,5.638123
731,0.196594,0.600952,0.766846,17.280579,10.559082,8.19397
732,0.184265,0.590271,0.74823,19.752502,8.834839,11.039734
733,0.174438,0.573608,0.720642,21.583557,7.43103,13.702393
734,0.18158,0.602295,0.689148,21.018982,6.759644,15.419006
735,0.175049,0.608765,0.697021,21.17157,5.027771,18.89801
736,0.181519,0.640808,0.645386,23.475647,3.753662,20.141602
737,0.174805,0.649902,0.619995,24.642944,3.707886,20.843506
738,0.15802,0.655457,0.608337,25.650024,4.394531,21.652222
739,0.150146,0.664429,0.600891,28.244019,4.91333,22.621155
740,0.145203,0.685547,0.593689,32.12738,5.859375,23.750305
741,0.143311,0.69873,0.595154,36.5448,7.995605,24.650574
742,0.150146,0.700623,0.595276,41.564941,10.765076,25.184631
743,0.228943,0.554871,0.572693,50.178528,18.684387,23.521423
744,0.234802,0.517822,0.6026,51.246643,21.492004,29.464722
745,0.1698,0.588501,0.665833,52.703857,23.521423,37.68158
746,0.141052,0.709961,0.708191,57.174683,27.549744,39.924622
747,0.149597,0.800476,0.736938,62.759399,33.958435,36.392212
748,0.157715,0.798279,0.716125,67.611694,52.703857,10.467529
749,0.155334,0.742493,0.653381,60.951233,67.54303,-9.658813
750,-0.009216,0.474792,0.757385,55.335999,80.474854,-33.309937
751,0.263428,0.536438,0.618652,72.059631,75.820923,-55.473328
752,0.13916,0.556335,0.686646,73.554993,82.565308,-71.456909
753,0.327271,0.65979,0.821777,79.25415,125.785828,-127.403259
754,0.668335,1.122192,1.551025,153.70178,129.882813,-175.308228
755,0.145874,0.847351,0.393494,113.07525,66.268921,-160.896301
756,0.161865,0.812866,1.73822,1.617432,17.01355,-136.573792
757,-0.209656,0.511597,0.708374,-140.4266,-73.58551,-111.045837
758,-0.233521,0.493774,1.365173,-250.0,-69.892883,-63.423157
759,-0.052185,0.554688,0.770874,-250.0,-64.27002,-41.290283
760,0.066528,0.678711,0.690308,-250.0,-63.987732,-27.008057
761,0.145996,0.787842,0.803101,-250.0,-62.3703,-25.695801
762,0.209839,0.903564,0.765747,-245.697,-91.506958,-37.17041
763,0.326172,1.020447,0.775452,-205.4214,-87.45575,-38.116455
764,0.243469,0.921997,0.647522,-159.0347,-70.236206,-32.249451
765,0.124756,0.855286,0.572937,-115.1885,-45.608521,-20.721436
766,0.184204,0.685669,0.527222,-65.87219,-28.015137,-2.555847
767,0.182678,0.525452,0.591858,-17.27294,-2.5177,7.43103
768,0.190125,0.512878,0.647156,73.226929,37.399292,12.657166
769,0.207275,0.544861,0.703125,109.90905,55.984497,15.830994
770,0.197021,0.567566,0.727051,138.61084,73.883057,19.691467
771,0.304199,0.715332,1.168152,157.89032,87.928772,22.956848
772,0.231812,0.791992,0.790283,157.60803,96.343994,24.56665
773,0.178467,0.7052,0.801575,130.95855,66.917419,22.438049
774,0.010681,0.435852,0.99884,78.88031,35.202026,36.201477
775,0.080017,0.358765,0.990356,60.806274,32.997131,42.327881
776,0.121704,0.420654,0.929321,29.663086,13.298035,37.254333
777,0.134766,0.50116,0.829163,3.15094,-2.159119,26.321411
778,0.109619,0.573853,0.828735,-12.89367,-11.688232,17.066956
779,0.144409,0.605042,0.777222,-24.10888,-24.040222,9.231567
780,0.140381,0.602112,0.743591,-24.49798,-28.320313,6.210327
781,0.178711,0.627258,0.765747,-23.59008,-32.020569,3.067017
782,0.171936,0.627808,0.751648,-20.69091,-34.515381,0.709534
783,0.184937,0.638672,0.745667,-17.27294,-36.384583,-1.556396
784,0.193298,0.624634,0.731323,-8.06427,-37.994385,-4.226685
785,0.200317,0.620911,0.73407,-2.838135,-37.902832,-5.348206
786,0.224731,0.591553,0.71283,2.212524,-37.765503,-6.408691
787,0.252625,0.567932,0.752075,5.447388,-39.459229,-5.149841
788,0.215759,0.586426,0.757263,0.617981,-47.828674,1.052856
789,0.2146,0.688477,0.721497,-3.52478,-52.505493,0.12207
790,0.221619,0.713013,0.720581,-3.166199,-54.138184,-3.242493
791,0.23468,0.692749,0.734253,-0.900269,-54.80957,-7.896423
792,0.244812,0.672913,0.744263,0.205994,-55.130005,-12.672424
793,0.249268,0.642212,0.746704,-1.792908,-57.197571,-19.66095
794,0.231384,0.586304,0.755737,-2.227783,-57.113647,-21.42334
795,0.218445,0.584656,0.762024,-4.425049,-57.739258,-22.033691
796,0.200867,0.581726,0.751709,-7.698059,-58.929443,-21.598816
797,0.196106,0.583801,0.753113,-10.82611,-58.998108,-19.889832
798,0.196411,0.582275,0.746338,-13.49639,-57.266235,-16.403198
799,0.206726,0.582397,0.761475,-16.96014,-54.56543,-11.573792
800,0.212891,0.580627,0.75177,-20.31707,-51.612854,-6.622314
801,0.242676,0.570679,0.754272,-33.82873,-42.58728,6.729126
802,0.258789,0.564575,0.758667,-36.88049,-41.397095,8.026123
803,0.266602,0.557373,0.754333,-39.71862,-40.504456,8.728027
804,0.274475,0.554443,0.76239,-42.66357,-40.145874,8.636475
805,0.284546,0.546509,0.767883,-45.41778,-40.06958,7.980347
806,0.292969,0.543335,0.759521,-48.25592,-40.489197,6.584167
807,0.300476,0.541382,0.769714,-51.1322,-40.870667,4.898071
808,0.302124,0.533264,0.769043,-56.97631,-42.152405,0.679016
809,0.309387,0.514709,0.775757,-59.9823,-42.861938,-1.502991
810,0.322388,0.50769,0.791504,-63.34686,-43.502808,-3.730774
811,0.353577,0.500183,0.867249,-67.18444,-43.09845,-6.04248
812,0.283447,0.489746,0.921265,-67.73376,-29.23584,-19.706726
813,0.288208,0.368286,0.896973,-69.0689,-32.836914,-24.665833
814,0.296936,0.383728,0.854248,-65.57464,-34.248352,-30.593872
815,0.282227,0.338257,0.872742,-57.98339,-35.27832,-34.667969
816,0.295532,0.361328,0.853516,-49.08752,-36.392212,-37.391663
817,0.299744,0.364624,0.860229,-30.54809,-35.903931,-39.665222
818,0.307617,0.38324,0.823914,-20.92742,-34.667969,-39.337158
819,0.310669,0.385376,0.846436,-12.26806,-32.440186,-37.872314
820,0.316895,0.388,0.849365,-3.593445,-30.105591,-35.469055
821,0.315552,0.404358,0.8479,3.829956,-27.801514,-32.218933
822,0.311829,0.412048,0.86676,9.590149,-25.054932,-23.498535
823,0.316467,0.412354,0.877014,9.124756,-25.70343,-19.096375
824,0.334045,0.430542,0.841675,12.130737,-23.178101,-15.342712
825,0.33844,0.440918,0.825012,17.173767,-19.493103,-11.962891
826,0.337036,0.457214,0.815796,22.453308,-15.174866,-8.918762
827,0.332947,0.47113,0.816467,29.266357,-6.988525,-2.731323
828,0.314819,0.501953,0.810181,29.724121,-4.066467,0.88501
829,0.292114,0.511597,0.808105,30.860901,-0.87738,4.623413
830,0.289246,0.531494,0.809814,31.326294,1.89209,8.491516
831,0.269409,0.53595,0.799316,30.258179,3.364563,12.870789
832,0.265503,0.534424,0.792419,28.610229,4.547119,17.463684
833,0.269653,0.537415,0.793274,27.168274,5.638123,21.972656
834,0.280945,0.530212,0.784424,22.68219,6.408691,29.144287
835,0.293579,0.523804,0.778625,19.91272,6.29425,31.280518
836,0.303284,0.517883,0.781921,17.181396,6.088257,32.073975
837,0.310425,0.513916,0.785828,14.129639,5.226135,31.700134
838,0.31665,0.508606,0.793457,11.009216,3.593445,30.357361
839,0.316956,0.502747,0.794067,5.599976,-1.037598,25.123596
840,0.315552,0.499084,0.799744,2.838135,-4.188538,21.827698
841,0.312256,0.497498,0.799133,-0.007629,-7.675171,18.455505
842,0.312073,0.495483,0.804504,-2.693176,-11.283875,15.350342
843,0.305969,0.492004,0.802734,-7.247925,-18.066406,9.941101
844,0.312195,0.490234,0.811523,-9.544373,-21.194458,7.659912
845,0.321472,0.482178,0.804688,-10.84137,-23.68927,5.249023
846,0.332886,0.471985,0.81665,-12.35961,-26.191711,2.326965
847,0.334351,0.467224,0.81012,-13.79394,-28.747559,-1.25885
848,0.338379,0.466125,0.807922,-15.92254,-33.226013,-9.414673
849,0.339539,0.466675,0.810913,-17.21191,-35.667419,-13.60321
850,0.343018,0.474976,0.799744,-18.52417,-37.872314,-17.585754
851,0.33429,0.481628,0.802246,-19.95086,-39.909363,-21.034241
852,0.32782,0.489258,0.803833,-21.69799,-41.801453,-24.032593
853,0.323364,0.494385,0.797485,-25.50506,-44.929504,-26.58844
854,0.331177,0.499023,0.789429,-27.33612,-46.218872,-26.71051
855,0.337524,0.496277,0.79071,-29.49523,-47.119141,-26.153564
856,0.346191,0.490417,0.788818,-31.06689,-47.294617,-25.428772
857,0.357788,0.481812,0.793274,-32.55462,-47.149658,-24.95575
858,0.370544,0.43866,0.80719,-33.85162,-46.989441,-24.299622
859,0.375671,0.451233,0.787292,-29.83856,-42.999268,-22.537231
860,0.388794,0.453735,0.786255,-29.29687,-41.435242,-21.896362
861,0.386047,0.434937,0.811951,-27.80914,-38.772583,-20.271301
862,0.389099,0.435059,0.796204,-25.55847,-35.591125,-18.1427
863,0.381714,0.434326,0.802368,-22.91107,-32.218933,-15.228271
864,0.390747,0.421753,0.82428,-19.31762,-28.526306,-11.650085
865,0.399963,0.415955,0.795593,-14.69421,-24.917603,-8.232117
866,0.419983,0.400757,0.819397,-6.141663,-17.700195,-5.41687
867,0.418884,0.396912,0.802551,-2.006531,-14.221191,-5.4245
868,0.409851,0.385315,0.822632,2.571106,-10.551453,-5.203247
869,0.4021,0.382263,0.829041,8.68988,-6.919861,-4.03595
870,0.408569,0.375305,0.835022,16.075134,-2.685547,-1.88446
871,0.41571,0.39624,0.819275,31.62384,7.446289,2.983093
872,0.415405,0.418152,0.802002,38.925171,13.565063,6.17981
873,0.414856,0.446594,0.782715,45.333862,20.751953,9.269714
874,0.387878,0.472351,0.778625,49.858093,28.038025,11.558533
875,0.365479,0.488281,0.790222,50.727844,33.889771,12.924194
876,0.346252,0.494751,0.78595,45.959473,41.107178,11.726379
877,0.321899,0.506836,0.789307,43.136597,43.319702,9.963989
878,0.316101,0.509827,0.78894,39.94751,44.128418,8.239746
879,0.311951,0.514648,0.788452,36.682129,43.693542,6.370544
880,0.310242,0.521179,0.774963,33.584595,43.380737,4.119873
881,0.317932,0.526917,0.77124,30.281067,43.418884,2.388
882,0.328369,0.52887,0.77124,26.626587,42.785645,1.51062
883,0.338501,0.525024,0.753479,19.111633,40.817261,2.120972
884,0.356323,0.529663,0.747742,15.914917,39.581299,3.311157
885,0.353638,0.522461,0.766357,12.962341,39.855957,4.257202
886,0.347351,0.514526,0.775208,11.741638,41.366577,5.462646
887,0.338501,0.505066,0.778809,10.826111,44.418335,8.308411
888,0.338135,0.498962,0.784729,11.116028,45.684814,10.055542
889,0.337952,0.50885,0.776855,11.154175,46.775818,11.520386
890,0.331726,0.509216,0.786316,10.559082,47.790527,12.59613
891,0.319458,0.509705,0.781067,9.597778,48.667908,13.35907
892,0.309631,0.51532,0.790161,8.125305,49.5224,13.832092
893,0.287781,0.509766,0.800171,7.217407,51.521301,15.396118
894,0.288696,0.503723,0.812622,7.530212,52.513123,16.685486
895,0.292358,0.498535,0.812683,8.712769,53.512573,18.074036
896,0.30896,0.491699,0.811401,10.070801,54.56543,19.134521
897,0.3479,0.467163,0.838135,10.978699,55.56488,20.149231
898,0.346985,0.456848,0.822205,10.612488,55.595398,21.789551
899,0.34375,0.473877,0.808289,4.295349,52.856445,23.460388
900,0.341797,0.475037,0.824402,3.173828,52.467346,22.964478
901,0.348755,0.496887,0.851135,-0.099182,49.346924,21.263123
902,0.391846,0.486084,0.891418,-0.419617,44.998169,13.206482
903,0.358154,0.464233,0.866028,1.609802,43.655396,6.660461
904,0.303284,0.48407,0.795898,4.142761,42.121887,-0.976563
905,0.313843,0.484497,0.810242,7.545471,42.724609,-6.286621
906,0.267212,0.478882,0.915466,8.789063,44.036865,-9.132385
907,0.234192,0.480591,0.820251,9.117126,42.396545,-9.254456
908,0.189087,0.466553,0.806946,7.461548,41.488647,-6.210327
909,0.174744,0.480896,0.799683,9.788513,39.863586,3.089905
910,0.181885,0.499695,0.799866,7.614136,36.392212,7.469177
911,0.188721,0.500305,0.794312,6.462097,34.805298,11.955261
912,0.193237,0.498779,0.816223,5.79071,34.431458,16.624451
913,0.20105,0.500488,0.808411,4.905701,34.263611,21.377563
914,0.194275,0.496338,0.81781,4.425049,33.340454,28.808594
915,0.206909,0.505005,0.777588,4.150391,31.707764,31.3797
916,0.219299,0.520691,0.817749,2.738953,30.075073,32.119751
917,0.238586,0.523804,0.798828,-0.617981,26.237488,30.487061
918,0.241943,0.515442,0.798462,-4.463196,20.011902,23.4375
919,0.219177,0.513123,0.807373,-4.776001,16.220093,18.821716
920,0.219421,0.510803,0.821472,-5.882263,11.184692,13.61084
921,0.222778,0.509033,0.812439,-6.210327,6.29425,8.392334
922,0.227783,0.504944,0.81958,-6.507874,2.029419,3.471375
923,0.230347,0.495239,0.830444,-6.759644,-1.686096,-0.900269
924,0.226135,0.486633,0.835571,-6.469727,-4.699707,-4.768372
925,0.229431,0.479492,0.83551,-5.073547,-9.58252,-10.154724
926,0.233215,0.472534,0.841064,-3.684998,-10.879517,-12.077332
927,0.243774,0.465759,0.850525,-2.075195,-11.634827,-13.73291
928,0.244141,0.463196,0.850525,-0.663757,-12.123108,-14.854431
929,0.244202,0.464905,0.849915,0.915527,-11.97052,-15.289307
930,0.239563,0.460999,0.850281,3.387451,-10.292053,-13.755798
931,0.237122,0.463257,0.840088,4.730225,-8.903503,-12.016296
932,0.230896,0.462219,0.851196,5.737305,-7.156372,-9.529114
933,0.227051,0.476685,0.832275,7.064819,-5.950928,-6.912231
934,0.234436,0.48291,0.837463,7.049561,-4.379272,-3.967285
935,0.215759,0.48584,0.825562,5.462646,1.159668,7.629395
936,0.216309,0.495667,0.826599,4.440308,3.288269,14.11438
937,0.211121,0.49054,0.817871,2.845764,2.624512,16.212463
938,0.20929,0.495667,0.814636,2.380371,1.724243,17.562866
939,0.214539,0.503967,0.812561,2.01416,0.389099,18.196106
940,0.227722,0.517517,0.807495,0.88501,-1.708984,17.852783
941,0.273743,0.558167,0.809326,-1.808167,-3.494263,17.570496
942,0.277222,0.539185,0.756287,-7.804871,-2.39563,18.554688
943,0.275085,0.531067,0.803467,-11.70349,0.228882,17.601013
944,0.286926,0.569824,0.789551,-18.16558,0.961304,10.925293
945,0.292664,0.55304,0.806763,-24.50561,0.869751,7.698059
946,0.275452,0.510986,0.838013,-26.95465,2.563477,4.142761
947,0.279907,0.472717,0.856018,-28.35845,2.319336,0.114441
948,0.269165,0.434753,0.858093,-24.37591,1.335144,-8.506775
949,0.269897,0.42395,0.862366,-20.11108,1.831055,-11.59668
950,0.248413,0.410522,0.871277,-17.53234,1.144409,-13.587952
951,0.223755,0.422974,0.862793,-13.42773,1.472473,-13.954163
952,0.232727,0.441406,0.845642,-9.849548,2.105713,-11.97052
953,0.202759,0.434814,0.853027,-9.513855,2.372742,-4.386902
954,0.218628,0.38916,0.858643,-7.156372,3.135681,-2.006531
955,0.183167,0.399048,0.868835,-1.617432,2.731323,-1.281738
956,0.215637,0.387878,0.887817,2.670288,-0.282288,-1.182556
957,0.147095,0.405457,0.836792,6.111145,-4.211426,-1.533508
958,0.131409,0.40448,0.859497,13.969421,-14.595032,2.342224
959,0.126099,0.413147,0.8479,15.869141,-21.888733,4.760742
960,0.130066,0.411438,0.843323,18.608093,-28.686523,7.270813
961,0.12854,0.412476,0.839783,22.369385,-34.820557,9.780884
962,0.130432,0.414001,0.840271,25.444031,-41.755676,12.466431
963,0.135254,0.410217,0.838135,28.182983,-49.133301,14.99939
964,0.146179,0.406555,0.839111,31.906128,-55.953979,17.39502
965,0.161682,0.396912,0.852417,40.512085,-69.694519,21.377563
966,0.232788,0.413452,0.886963,46.478271,-75.653076,22.491455
967,0.68689,0.65387,1.507568,53.596497,-76.591492,21.652222
968,0.427673,0.624512,0.91449,66.741943,-68.267822,16.471863
969,0.428162,0.572754,0.728882,58.868408,-67.558289,15.579224
970,0.439514,0.542297,0.613159,32.913208,-48.75946,9.109497
971,0.409546,0.561157,0.653381,29.830933,-34.721375,6.866455
972,0.411743,0.570984,0.65802,24.765015,-23.5672,5.073547
973,0.404663,0.566162,0.647644,15.739441,-14.663696,3.196716
974,0.409241,0.574646,0.671143,6.027222,-6.950378,1.426697
975,0.406738,0.577271,0.674988,-2.441406,0.640869,0.030518
976,0.407471,0.576782,0.679077,-11.24572,7.347107,-1.327515
977,0.430664,0.557129,0.661438,-29.76226,21.614075,-4.79126
978,0.437683,0.544983,0.678711,-34.73663,32.913208,-7.461548
979,0.434937,0.531799,0.707153,-38.04779,44.517517,-10.688782
980,0.490784,0.563721,0.74176,-43.80798,53.604126,-14.411926
981,0.622559,0.581848,0.930847,-50.14801,64.743042,-19.798279
982,0.402039,0.490479,1.396118,-13.62609,75.080872,-27.229309
983,0.154358,0.363953,0.865234,-17.68493,61.210632,-26.115417
984,0.123535,0.433838,0.881348,-23.70452,47.859192,-26.641846
985,0.11792,0.418091,0.802612,-17.83752,39.69574,-24.299622
986,0.105408,0.42981,0.842896,-10.14709,22.979736,-19.645691
987,0.101563,0.430481,0.835449,-7.705688,13.35907,-17.417908
988,0.103516,0.432251,0.822815,-3.02124,5.821228,-14.930725
989,0.10144,0.437195,0.835022,-0.221252,-2.7771,-12.512207
990,0.102905,0.43396,0.829834,-0.602722,-13.626099,-10.040283
991,0.110901,0.42981,0.819397,6.118774,-29.23584,-4.15802
992,0.122498,0.43042,0.838196,9.277344,-36.651611,-1.075745
993,0.128784,0.42511,0.836975,9.536743,-46.142578,1.89209
994,0.15033,0.409363,0.853271,12.138367,-53.985596,4.66156
995,0.177246,0.39325,0.870667,18.295288,-59.341431,6.988525
996,0.228027,0.416565,0.902649,29.388428,-69.450378,7.911682
997,0.507202,0.506226,1.230286,38.742065,-64.460754,3.990173
998,0.449097,0.512451,0.755249,36.026001,-59.921265,1.449585
999,0.452942,0.52063,0.668396,25.71106,-52.993774,-2.243042
1000,0.446899,0.5224,0.662415,20.149231,-39.924622,-6.149292
1001,0.431335,0.548889,0.65625,18.539429,-25.642395,-8.926392
1002,0.417419,0.56073,0.665222,2.586365,-7.408142,-13.023376
1003,0.409363,0.564331,0.675903,-4.470825,1.220703,-14.656067
1004,0.411865,0.564148,0.688843,-12.46643,9.246826,-16.326904
1005,0.418518,0.556763,0.670166,-22.09472,16.342163,-18.440247
1006,0.433472,0.541382,0.668091,-30.74646,24.787903,-21.011353
1007,0.455383,0.538635,0.688904,-35.83526,35.78186,-24.330139
1008,0.578979,0.585266,1.045532,-39.68048,50.178528,-29.602051
1009,0.185059,0.599304,1.245911,-25.177,60.35614,-34.408569
1010,0.130249,0.494751,0.658691,-12.26043,45.875549,-29.273987
1011,0.131653,0.430298,0.805664,-28.64074,22.109985,-22.529602
1012,0.134521,0.41748,0.841248,-25.97045,14.923096,-19.042969
1013,0.137268,0.41626,0.822754,-21.27075,8.468628,-16.059875
1014,0.136719,0.403076,0.836121,-14.5874,3.189087,-13.015747
1015,0.142212,0.401611,0.853638,-8.522034,-2.616882,-10.322571
1016,0.153748,0.403809,0.851746,-4.15802,-19.561768,-6.019592
1017,0.178589,0.380554,0.846985,1.12915,-25.634766,-4.486084
1018,0.184387,0.381042,0.852905,10.08606,-29.075623,-3.143311
1019,0.193787,0.375977,0.856201,20.980835,-41.168213,-1.304626
1020,0.253662,0.384644,0.91394,27.023315,-46.363831,-0.732422
1021,0.432434,0.468201,1.040771,36.750793,-48.149109,-1.831055
1022,0.49939,0.531555,1.052795,43.47229,-41.305542,-5.455017
1023,0.424744,0.553345,0.72345,42.411804,-36.026001,-7.331848
1024,0.406738,0.555786,0.629211,28.617859,-30.540466,-8.728027
1025,0.403198,0.566467,0.625366,10.444641,-9.83429,-12.420654
1026,0.368347,0.605652,0.638367,4.653931,-0.808716,-12.496948
1027,0.351807,0.613403,0.649231,-3.585815,6.057739,-12.489319
1028,0.34137,0.611084,0.665039,-14.73236,10.3302,-12.184143
1029,0.342896,0.605408,0.661621,-27.45056,13.168335,-11.543274
1030,0.476318,0.708618,0.758362,-48.63739,28.793335,-13.946533
1031,0.173462,0.454102,0.847778,-28.07617,27.839661,-12.588501
1032,0.204895,0.336609,0.892822,-27.27508,18.928528,-10.093689
1033,0.203308,0.376038,0.886597,-30.57098,9.773254,-11.108398
1034,0.203247,0.37146,0.829773,-20.34759,6.622314,-10.139465
1035,0.192566,0.384338,0.852051,-9.681702,4.699707,-9.147644
1036,0.191406,0.38208,0.834351,0.656128,-8.171082,-7.766724
1037,0.193115,0.377808,0.85437,8.972168,-11.741638,-6.942749
1038,0.188354,0.377014,0.871094,17.059326,-15.937805,-6.17218
1039,0.197388,0.377441,0.869995,21.224976,-23.147583,-5.577087
1040,0.236572,0.365784,0.865662,26.596069,-29.121399,-5.203247
1041,0.481506,0.585144,1.080688,35.598755,-31.105042,-5.699158
1042,0.378174,0.603271,0.873901,35.881042,-22.224426,-5.53894
1043,0.367493,0.608765,0.590149,17.829895,-21.17157,-5.348206
1044,0.361633,0.58313,0.625732,2.532959,-14.823914,-5.882263
1045,0.368896,0.595459,0.659607,-5.531311,-5.897522,-6.240845
1046,0.371521,0.588623,0.649048,-12.80212,3.059387,-6.523132
1047,0.463623,0.539917,0.886902,-31.44073,21.30127,-10.307312
1048,0.218994,0.466492,1.182617,-28.29742,27.626038,-14.320374
1049,0.196716,0.401123,0.772827,-13.22937,21.270752,-11.886597
1050,0.181396,0.387573,0.890076,-16.96777,12.168884,-10.83374
1051,0.188904,0.386292,0.819275,-1.747131,3.334045,-8.262634
1052,0.163086,0.408813,0.862183,4.737854,-2.410889,-6.385803
1053,0.150513,0.425598,0.816528,7.453918,-10.940552,-3.913879
1054,0.14624,0.438416,0.827942,11.611938,-17.25769,-0.770569
1055,0.179749,0.448792,0.84198,16.00647,-23.078918,2.700806
1056,0.424194,0.493591,1.114258,18.417358,-28.907776,1.38855
1057,0.427185,0.519043,0.710754,14.701843,-23.330688,-0.579834
1058,0.414246,0.549988,0.640076,8.44574,-12.59613,-3.814697
1059,0.388245,0.567383,0.638,3.196716,0.053406,-6.019592
1060,0.374634,0.596252,0.649414,-2.799988,10.83374,-7.049561
1061,0.36261,0.617554,0.683594,-18.38684,21.766663,-7.911682
1062,0.21991,0.421326,0.778564,-9.849548,11.764526,-3.852844
1063,0.226563,0.343567,0.886963,-15.33508,1.815796,-3.410339
1064,0.236145,0.36969,0.834839,-10.67352,-1.77002,-4.905701
1065,0.215271,0.375854,0.862122,4.180908,-0.907898,-4.348755
1066,0.171875,0.430359,0.834778,13.99231,-4.127502,-3.288269
1067,0.162903,0.462769,0.835815,16.723633,-11.459351,-0.465393
1068,0.396362,0.532166,1.057678,16.563416,-16.967773,1.869202
1069,0.387329,0.57019,0.637756,-7.05719,10.543823,-4.302979
1070,0.215027,0.49707,1.161926,-4.78363,18.424988,-3.768921
1071,0.256897,0.413086,0.779724,3.112793,10.131836,-1.556396
1072,0.236633,0.361572,0.90033,-6.614685,-1.838684,-2.26593
1073,0.200378,0.43634,0.809875,-4.966736,-6.599426,-3.578186
1074,0.188416,0.455139,0.822876,8.285522,-5.455017,-0.518799
1075,0.40033,0.552124,0.716309,9.109497,-8.171082,-0.106812
1076,0.304138,0.540161,0.611633,-0.953674,-4.112244,-2.059937
1077,0.209595,0.519104,0.801819,-4.119873,5.180359,-2.410889
1078,0.289246,0.472229,0.97644,4.142761,7.965088,-0.50354
1079,0.282532,0.375488,0.839233,-4.692078,-6.721497,-2.182007
1080,0.305603,0.535217,0.756042,5.264282,-2.731323,-1.00708
1081,0.292419,0.518494,0.737366,8.911133,2.883911,0.137329
1082,0.286499,0.489502,0.879333,0.75531,2.746582,-0.022888
1083,0.274475,0.453674,0.817505,-3.852844,-2.128601,-0.366211
1084,0.281616,0.45636,0.843811,-2.13623,-3.53241,-0.770569
1085,0.300781,0.501526,0.804749,5.439758,-0.305176,-0.831604
1086,0.286133,0.487915,0.837524,2.449036,0.87738,-0.12207
1087,0.283386,0.463013,0.83197,-1.647949,-2.128601,-0.213623
1088,0.284973,0.469788,0.825928,-1.113892,-2.906799,-0.602722
1089,0.29187,0.489197,0.805298,3.242493,-0.648499,-0.572205
1090,0.286133,0.499084,0.806091,5.92041,1.88446,-0.427246
1091,0.286438,0.488281,0.826111,-0.556946,-2.037048,-0.335693
1092,0.288391,0.479858,0.8125,-0.785828,-2.677917,-0.62561
1093,0.291992,0.486877,0.807678,3.044128,-0.213623,-0.572205
1094,0.284485,0.492615,0.817139,4.79126,1.617432,-0.450134
1095,0.279785,0.486572,0.827881,0.213623,-1.708984,-0.442505
1096,0.284912,0.480408,0.820984,0.442505,-1.899719,-0.526428
1097,0.28595,0.488586,0.811279,3.166199,-0.030518,-0.419617
1098,0.28418,0.491089,0.820374,3.959656,1.037598,-0.198364
1099,0.283264,0.486145,0.824463,2.029419,-0.396729,-0.358582
1100,0.284729,0.485596,0.814453,0.572205,-1.625061,-0.518799
1101,0.286255,0.485168,0.812561,1.579285,-0.938416,-0.572205
1102,0.285278,0.484619,0.821655,3.112793,0.289917,-0.488281
1103,0.285522,0.48407,0.82251,1.63269,-0.740051,-0.442505
1104,0.286377,0.485229,0.816162,1.197815,-1.144409,-0.511169
1105,0.288269,0.484131,0.816895,2.799988,-0.007629,-0.442505
1106,0.286865,0.48175,0.821106,2.334595,-0.534058,-0.442505
1107,0.286194,0.484802,0.815674,1.495361,-0.968933,-0.396729
1108,0.289429,0.485962,0.818176,1.617432,-0.640869,-0.419617
1109,0.288086,0.481384,0.815002,2.372742,-0.045776,-0.38147
1110,0.2901,0.483948,0.818298,2.342224,-0.083923,-0.442505
1111,0.285706,0.48584,0.814026,1.876831,-0.50354,-0.488281
1112,0.285278,0.485779,0.817566,2.098083,-0.38147,-0.411987
1113,0.287109,0.485901,0.822083,2.349854,-0.1297,-0.358582
1114,0.287109,0.486633,0.819153,2.105713,-0.328064,-0.37384
1115,0.286987,0.486084,0.816528,1.930237,-0.50354,-0.427246
1116,0.286865,0.483826,0.817139,1.930237,-0.579834,-0.404358
1117,0.286316,0.48407,0.819641,2.304077,-0.358582,-0.419617
1118,0.283752,0.487122,0.821899,2.120972,-0.389099,-0.442505
1119,0.283325,0.487183,0.817993,2.029419,-0.50354,-0.450134
1120,0.284546,0.485413,0.819031,2.075195,-0.396729,-0.488281
1121,0.283752,0.48645,0.818848,2.113342,-0.389099,-0.396729
1122,0.286377,0.486145,0.814758,2.166748,-0.427246,-0.350952
1123,0.285034,0.484802,0.818481,2.037048,-0.473022,-0.350952
1124,0.287048,0.485107,0.818054,2.059937,-0.549316,-0.480652
1125,0.284973,0.48584,0.818054,2.26593,-0.366211,-0.50354
1126,0.287231,0.486633,0.818665,2.189636,-0.38147,-0.465393
1127,0.285828,0.487427,0.815125,2.098083,-0.473022,-0.450134
1128,0.288391,0.486511,0.813904,2.082825,-0.419617,-0.427246
1129,0.287231,0.485962,0.816101,2.029419,-0.366211,-0.511169
1130,0.286011,0.486755,0.815613,2.151489,-0.335693,-0.579834
1131,0.288147,0.485046,0.817322,2.120972,-0.350952,-0.465393
1132,0.28656,0.485535,0.817627,2.052307,-0.358582,-0.480652
1133,0.286072,0.484314,0.817749,2.082825,-0.389099,-0.495911
1134,0.285706,0.484558,0.815979,2.128601,-0.50354,-0.534058
1135,0.286926,0.482178,0.816467,2.052307,-0.366211,-0.404358
1136,0.284729,0.485657,0.819458,2.006531,-0.411987,-0.480652
1137,0.287354,0.48645,0.819702,1.983643,-0.396729,-0.495911
1138,0.285095,0.487305,0.818054,2.029419,-0.495911,-0.518799
1139,0.286377,0.486694,0.816345,2.174377,-0.396729,-0.37384
1140,0.284851,0.485657,0.81842,2.075195,-0.526428,-0.419617
1141,0.286743,0.486816,0.817261,2.044678,-0.442505,-0.419617
1142,0.285767,0.485291,0.815857,2.067566,-0.50354,-0.37384
1143,0.285461,0.486084,0.818176,2.067566,-0.50354,-0.488281
1144,0.286377,0.486877,0.818665,2.090454,-0.549316,-0.495911
1145,0.285583,0.487183,0.818481,2.120972,-0.572205,-0.442505
1146,0.287231,0.48468,0.814575,2.189636,-0.396729,-0.434875
1147,0.286987,0.485901,0.819458,2.044678,-0.320435,-0.343323
1148,0.285828,0.482727,0.81958,2.01416,-0.450134,-0.442505
1149,0.283997,0.483765,0.818542,2.01416,-0.457764,-0.343323
1150,0.286194,0.482361,0.818726,2.166748,-0.419617,-0.450134
1151,0.284607,0.484314,0.818481,2.128601,-0.389099,-0.434875
1152,0.28717,0.486511,0.821289,2.098083,-0.404358,-0.419617
1153,0.283813,0.48645,0.819214,2.059937,-0.358582,-0.396729
1154,0.283691,0.485229,0.818359,2.075195,-0.511169,-0.465393
1155,0.286438,0.484314,0.815857,2.13623,-0.488281,-0.488281
1156,0.286011,0.483459,0.817993,2.037048,-0.411987,-0.358582
1157,0.285706,0.482788,0.819641,2.113342,-0.480652,-0.282288
1158,0.287048,0.486023,0.818054,2.082825,-0.450134,-0.450134
1159,0.286865,0.486389,0.817627,2.067566,-0.511169,-0.434875
1160,0.285889,0.486145,0.820679,2.044678,-0.541687,-0.457764
1161,0.290527,0.495361,0.821899,2.01416,-0.465393,-0.480652
1162,0.27478,0.487976,0.807556,2.13623,-0.389099,-0.404358
1163,0.296936,0.493652,0.824768,2.052307,-0.152588,-0.564575
1164,0.282776,0.480713,0.808777,2.334595,-0.419617,-0.526428
1165,0.30072,0.487671,0.820862,2.098083,-0.747681,-0.457764
1166,0.27832,0.486816,0.800537,2.197266,-0.305176,-0.541687
1167,0.297363,0.485168,0.823364,2.296448,0.0,-0.221252
1168,0.280762,0.47876,0.822693,1.502991,-0.831604,-0.587463
1169,0.284546,0.481934,0.821899,2.105713,-0.465393,-0.595093
1170,0.282959,0.487915,0.813416,2.89917,0.183105,-0.518799
1171,0.283752,0.484924,0.837585,2.197266,0.030518,-0.473022
1172,0.278015,0.478333,0.816895,1.907349,-0.976563,-0.427246
1173,0.300598,0.495483,0.812256,2.563477,0.144958,-0.480652
1174,0.293396,0.487793,0.832397,2.456665,0.068665,-0.267029
1175,0.289734,0.481812,0.815613,1.647949,-0.816345,-0.404358
1176,0.287537,0.485962,0.813049,1.319885,-1.174927,-0.450134
1177,0.292725,0.484558,0.818665,2.357483,-0.190735,-0.442505
1178,0.275391,0.4823,0.814331,2.845764,0.427246,-0.556946
1179,0.287781,0.480652,0.831299,1.937866,-0.488281,-0.404358
1180,0.287842,0.488159,0.815002,2.159119,-0.396729,-0.389099
1181,0.28186,0.486084,0.822693,2.52533,0.099182,-0.343323
1182,0.284973,0.484497,0.824341,2.067566,-0.534058,-0.404358
1183,0.290222,0.481323,0.815674,1.647949,-0.984192,-0.457764
1184,0.288879,0.484863,0.812195,2.441406,-0.106812,-0.350952
1185,0.280823,0.482239,0.824524,2.319336,-0.1297,-0.434875
1186,0.284973,0.486389,0.813965,1.876831,-0.556946,-0.549316
1187,0.280945,0.482666,0.808228,2.227783,-0.350952,-0.50354
1188,0.289734,0.48645,0.819092,2.090454,-0.343323,-0.465393
1189,0.290283,0.484497,0.829895,1.914978,-0.480652,-0.450134
1190,0.282532,0.487061,0.81781,2.14386,-0.411987,-0.442505
1191,0.284485,0.481873,0.824951,2.227783,-0.511169,-0.335693
1192,0.29126,0.483948,0.814392,1.976013,-0.434875,-0.389099
1193,0.286133,0.479675,0.822083,2.006531,-0.465393,-0.457764
1194,0.28363,0.480347,0.819885,2.082825,-0.411987,-0.419617
1195,0.286255,0.482239,0.819031,2.212524,-0.404358,-0.411987
1196,0.286194,0.483826,0.815857,2.189636,-0.457764,-0.411987
1197,0.288757,0.485229,0.815918,2.029419,-0.541687,-0.480652
1198,0.283264,0.484497,0.816406,1.998901,-0.38147,-0.473022
1199,0.28717,0.4823,0.81842,2.098083,-0.350952,-0.404358
1200,0.284241,0.484558,0.817688,2.090454,-0.343323,-0.518799
1201,0.285156,0.485229,0.82135,2.098083,-0.480652,-0.50354
1202,0.286011,0.484009,0.819885,2.075195,-0.473022,-0.404358
1203,0.288147,0.485596,0.817078,2.128601,-0.465393,-0.427246
1204,0.286011,0.485291,0.816711,2.044678,-0.404358,-0.518799
1205,0.286926,0.486694,0.823669,1.976013,-0.50354,-0.488281
1206,0.283264,0.484741,0.820435,2.14386,-0.389099,-0.488281
1207,0.284363,0.484741,0.817017,2.090454,-0.434875,-0.427246
1208,0.286316,0.483032,0.817993,2.02179,-0.480652,-0.411987
1209,0.284485,0.485962,0.822693,2.01416,-0.434875,-0.50354
1210,0.284851,0.484375,0.816467,2.128601,-0.480652,-0.389099
1211,0.284424,0.482666,0.819275,2.128601,-0.526428,-0.350952
1212,0.286133,0.483887,0.818237,2.151489,-0.50354,-0.343323
1213,0.287598,0.482422,0.820007,2.113342,-0.534058,-0.297546
1214,0.285217,0.483276,0.818848,2.029419,-0.457764,-0.389099
1215,0.286194,0.485474,0.81842,2.166748,-0.457764,-0.389099
1216,0.289612,0.484863,0.819763,2.182007,-0.465393,-0.427246
1217,0.288025,0.485046,0.817627,2.120972,-0.427246,-0.473022
1218,0.285583,0.483704,0.817993,2.120972,-0.511169,-0.38147
1219,0.285095,0.483521,0.818726,2.037048,-0.511169,-0.549316
1220,0.285767,0.484863,0.819702,2.105713,-0.442505,-0.488281
1221,0.284241,0.484802,0.821045,2.159119,-0.366211,-0.37384
1222,0.284546,0.483582,0.818665,2.212524,-0.434875,-0.450134
1223,0.283813,0.485596,0.818481,2.120972,-0.442505,-0.480652
1224,0.285339,0.484436,0.821594,2.105713,-0.320435,-0.427246
1225,0.28656,0.485046,0.818481,2.13623,-0.404358,-0.450134
1226,0.286194,0.485718,0.819702,2.120972,-0.480652,-0.396729
1227,0.285828,0.483582,0.822083,2.13623,-0.465393,-0.450134
1228,0.287781,0.484375,0.818848,2.075195,-0.50354,-0.411987
1229,0.282654,0.483887,0.814148,2.029419,-0.541687,-0.37384
1230,0.285583,0.483276,0.819763,2.01416,-0.442505,-0.37384
1231,0.288574,0.481934,0.816833,2.067566,-0.427246,-0.411987
1232,0.285889,0.482971,0.821167,1.968384,-0.488281,-0.450134
1233,0.287598,0.484009,0.818909,2.120972,-0.50354,-0.495911
1234,0.287659,0.486328,0.816711,2.105713,-0.434875,-0.480652
1235,0.288086,0.485962,0.818176,2.14386,-0.450134,-0.396729
1236,0.286987,0.485596,0.821228,2.090454,-0.450134,-0.473022
1237,0.28772,0.48407,0.820374,1.945496,-0.427246,-0.434875
1238,0.284363,0.483765,0.819946,2.098083,-0.328064,-0.442505
1239,0.286865,0.48291,0.818481,2.059937,-0.37384,-0.343323
1240,0.286072,0.484497,0.820679,2.067566,-0.358582,-0.442505
1241,0.286926,0.485229,0.822083,2.098083,-0.488281,-0.343323
1242,0.286499,0.485413,0.816589,2.128601,-0.511169,-0.404358
1243,0.282593,0.487,0.817383,2.14386,-0.473022,-0.427246
1244,0.283142,0.484741,0.816589,2.113342,-0.473022,-0.442505
1245,0.281372,0.485474,0.818359,2.006531,-0.465393,-0.457764
1246,0.283508,0.487793,0.821167,2.151489,-0.38147,-0.450134
1247,0.285278,0.483582,0.820435,2.128601,-0.312805,-0.419617
1248,0.284241,0.483887,0.820068,2.182007,-0.37384,-0.389099
1249,0.282898,0.484375,0.819214,2.082825,-0.37384,-0.343323
1250,0.286316,0.483643,0.819031,2.082825,-0.350952,-0.312805
1251,0.285583,0.485168,0.808289,2.13623,-0.37384,-0.404358
1252,0.283691,0.479553,0.815491,2.01416,-0.465393,-0.411987
1253,0.279053,0.470032,0.823853,1.991272,-0.289917,-0.495911
1254,0.285339,0.479187,0.809753,2.311707,-0.411987,-0.427246
1255,0.289124,0.483521,0.814331,2.044678,-0.411987,-0.419617
1256,0.281616,0.483704,0.816895,1.953125,-0.450134,-0.419617
1257,0.286499,0.483521,0.8255,2.13623,-0.442505,-0.534058
1258,0.280273,0.482544,0.811951,2.052307,-0.518799,-0.389099
1259,0.284241,0.484558,0.816833,2.075195,-0.480652,-0.465393
1260,0.287231,0.485596,0.820068,2.197266,-0.442505,-0.518799
1261,0.285034,0.485657,0.81897,2.128601,-0.457764,-0.427246
1262,0.286072,0.486267,0.817749,2.105713,-0.480652,-0.366211
1263,0.28595,0.486511,0.813721,2.120972,-0.473022,-0.480652
1264,0.28363,0.48645,0.818054,2.128601,-0.389099,-0.473022
1265,0.2854,0.483582,0.817566,2.044678,-0.434875,-0.495911
1266,0.284485,0.484436,0.817932,2.128601,-0.350952,-0.556946
1267,0.283386,0.482239,0.820862,2.174377,-0.37384,-0.488281
1268,0.257751,0.46521,0.814148,2.02179,-0.343323,-0.427246
1269,0.280212,0.486267,0.828247,1.976013,-0.518799,-0.396729
1270,0.291626,0.490356,0.80072,2.197266,-0.465393,-0.328064
1271,0.288269,0.487671,0.82782,2.052307,-0.62561,-0.495911
1272,0.289429,0.487549,0.82196,2.067566,-0.541687,-0.549316
1273,0.283447,0.480957,0.797729,2.281189,-0.350952,-0.404358
1274,0.289917,0.480042,0.825684,2.02179,-0.495911,-0.419617
1275,0.284729,0.486023,0.814941,2.235413,-0.442505,-0.404358
1276,0.286194,0.483337,0.821106,2.311707,-0.343323,-0.389099
1277,0.283569,0.485901,0.818359,2.029419,-0.457764,-0.450134
1278,0.28949,0.48584,0.813782,1.937866,-0.488281,-0.358582
1279,0.284241,0.484558,0.820313,2.128601,-0.236511,-0.37384
1280,0.284119,0.484497,0.825134,2.243042,-0.305176,-0.434875
1281,0.283936,0.485596,0.820801,2.037048,-0.541687,-0.50354
1282,0.284424,0.484131,0.817688,2.166748,-0.37384,-0.465393
1283,0.280579,0.484741,0.814819,2.151489,-0.450134,-0.50354
1284,0.295227,0.485474,0.807739,2.052307,-0.465393,-0.473022
1285,0.280823,0.483032,0.824829,1.960754,-0.419617,-0.404358
1286,0.283875,0.481995,0.825073,2.166748,-0.38147,-0.289917
1287,0.285278,0.485413,0.81311,2.037048,-0.434875,-0.396729
1288,0.289612,0.482727,0.821716,2.02179,-0.411987,-0.488281
1289,0.284729,0.484314,0.822449,2.067566,-0.419617,-0.50354
1290,0.285889,0.485962,0.819885,2.098083,-0.442505,-0.450134
1291,0.284607,0.486572,0.821899,2.029419,-0.434875,-0.320435
1292,0.286438,0.487122,0.819031,2.174377,-0.434875,-0.465393
1293,0.284363,0.483582,0.816528,2.052307,-0.419617,-0.37384
1294,0.286804,0.484314,0.817261,2.090454,-0.411987,-0.328064
1295,0.284058,0.486267,0.818481,2.120972,-0.419617,-0.404358
1296,0.290039,0.484253,0.820251,2.113342,-0.534058,-0.465393
1297,0.275757,0.485352,0.821106,2.105713,-0.534058,-0.50354
1298,0.288696,0.484131,0.809875,2.204895,-0.267029,-0.411987
1299,0.282837,0.483887,0.825684,1.976013,-0.656128,-0.518799
1300,0.287231,0.487366,0.814453,2.006531,-0.541687,-0.488281
1301,0.284485,0.481873,0.810608,2.227783,-0.37384,-0.450134
1302,0.287292,0.480652,0.821594,2.098083,-0.450134,-0.396729
1303,0.286987,0.4823,0.82135,1.976013,-0.595093,-0.495911
1304,0.287292,0.483948,0.819641,2.357483,-0.25177,-0.411987
1305,0.286011,0.486633,0.819885,2.128601,-0.434875,-0.473022
1306,0.28656,0.48584,0.81543,1.899719,-0.595093,-0.366211
1307,0.285339,0.483215,0.819397,1.991272,-0.343323,-0.434875
1308,0.286804,0.48407,0.815063,2.105713,-0.495911,-0.457764
1309,0.289307,0.488037,0.819763,2.029419,-0.480652,-0.556946
1310,0.2901,0.498901,0.821106,2.189636,-0.50354,-0.427246
1311,0.281555,0.487854,0.799011,2.098083,-0.190735,-0.411987
1312,0.290649,0.482056,0.841064,1.953125,-0.350952,-0.37384
1313,0.28064,0.483093,0.818542,2.166748,-0.457764,-0.587463
1314,0.283447,0.484314,0.81543,2.189636,-0.144958,-0.450134
1315,0.281128,0.48291,0.827026,1.998901,-0.396729,-0.450134
1316,0.287415,0.48407,0.816833,1.815796,-0.717163,-0.396729
1317,0.282654,0.485779,0.819641,2.044678,-0.518799,-0.38147
1318,0.289917,0.484924,0.819397,2.044678,-0.473022,-0.442505
1319,0.286926,0.486023,0.815552,1.846313,-0.648499,-0.488281
1320,0.285339,0.484253,0.818176,2.059937,-0.488281,-0.404358
1321,0.28241,0.483276,0.822266,2.26593,-0.25177,-0.366211
1322,0.286743,0.481812,0.821106,2.067566,-0.495911,-0.473022
1323,0.269653,0.481628,0.817444,1.876831,-0.62561,-0.450134
1324,0.302368,0.483276,0.811462,2.235413,-0.358582,-0.389099
1325,0.289185,0.483032,0.817383,2.044678,-0.564575,-0.38147
1326,0.286011,0.484253,0.82019,1.89209,-0.534058,-0.480652
1327,0.286499,0.482178,0.815918,2.13623,-0.221252,-0.366211
1328,0.287781,0.483032,0.822327,2.166748,-0.289917,-0.335693
1329,0.284302,0.485657,0.818481,1.976013,-0.526428,-0.404358
1330,0.285461,0.484497,0.815979,2.288818,-0.213623,-0.37384
1331,0.284363,0.485657,0.815857,2.311707,-0.236511,-0.38147
1332,0.28595,0.484802,0.817261,1.991272,-0.457764,-0.434875
1333,0.285706,0.483887,0.817566,2.01416,-0.450134,-0.434875
1334,0.276245,0.498108,0.813904,2.296448,-0.671387,-0.335693
1335,0.285095,0.485046,0.81311,2.059937,-0.076294,-0.663757
1336,0.285828,0.483826,0.830627,2.189636,-0.228882,-0.450134
1337,0.281006,0.484375,0.812134,2.01416,-0.671387,-0.488281
1338,0.287659,0.49231,0.812744,1.983643,-0.694275,-0.480652
1339,0.284546,0.483093,0.808228,2.27356,-0.1297,-0.396729
1340,0.285767,0.482666,0.828491,1.922607,-0.709534,-0.411987
1341,0.286621,0.488342,0.817078,1.831055,-0.671387,-0.465393
1342,0.29071,0.484802,0.813538,1.88446,-0.63324,-0.480652
1343,0.286316,0.481018,0.82312,1.838684,-0.564575,-0.50354
1344,0.284119,0.479309,0.824829,2.250671,-0.244141,-0.473022
1345,0.299255,0.486389,0.808655,2.304077,-0.495911,-0.404358
1346,0.278931,0.48114,0.820068,1.937866,-0.457764,-0.419617
1347,0.292419,0.480835,0.824463,2.189636,-0.312805,-0.457764
1348,0.287415,0.485107,0.808472,2.120972,-0.465393,-0.442505
1349,0.288147,0.482117,0.822876,1.998901,-0.37384,-0.366211
1350,0.283875,0.483704,0.818909,2.044678,-0.259399,-0.411987
1351,0.286926,0.48584,0.819275,2.075195,-0.404358,-0.358582
1352,0.281311,0.487,0.82074,2.26593,-0.610352,-0.350952
1353,0.289185,0.483765,0.814331,2.334595,-0.442505,-0.366211
1354,0.254761,0.46698,0.815491,2.159119,-0.518799,-0.473022
1355,0.280457,0.480652,0.826538,1.838684,-0.541687,-0.473022
1356,0.291138,0.488342,0.801025,2.029419,-0.450134,-0.495911
1357,0.285645,0.489197,0.819153,2.204895,-0.274658,-0.473022
1358,0.276611,0.4823,0.823242,2.151489,-0.587463,-0.465393
1359,0.282288,0.481018,0.803467,2.220154,-0.396729,-0.534058
1360,0.288147,0.486755,0.819885,2.052307,-0.404358,-0.404358
1361,0.280579,0.486755,0.82251,1.976013,-0.495911,-0.427246
1362,0.282898,0.487244,0.820862,2.281189,-0.320435,-0.450134
1363,0.284485,0.48291,0.817322,2.159119,-0.480652,-0.457764
1364,0.271179,0.476624,0.809875,2.098083,-0.62561,-0.404358
1365,0.31134,0.484985,0.823792,1.899719,-0.434875,-0.427246
1366,0.272827,0.48175,0.82251,2.26593,-0.106812,-0.534058
1367,0.298401,0.485107,0.821045,2.258301,-0.427246,-0.389099
1368,0.295715,0.481567,0.829773,1.930237,-0.534058,-0.450134
1369,0.283569,0.48175,0.810547,2.27356,-0.213623,-0.465393
1370,0.287537,0.484924,0.820068,2.029419,-0.473022,-0.343323
1371,0.284363,0.488647,0.819031,1.792908,-0.572205,-0.480652
1372,0.282898,0.483093,0.817993,2.189636,-0.434875,-0.541687
1373,0.283142,0.483948,0.818665,2.349854,-0.335693,-0.473022
1374,0.285706,0.479858,0.818054,1.88446,-0.62561,-0.442505
1375,0.284119,0.487,0.810181,2.14386,-0.389099,-0.518799
1376,0.284424,0.488708,0.818176,2.090454,-0.404358,-0.473022
1377,0.282959,0.484253,0.818542,1.945496,-0.396729,-0.556946
1378,0.283081,0.484619,0.819763,2.006531,-0.457764,-0.473022
1379,0.286987,0.486572,0.82196,2.113342,-0.419617,-0.411987
1380,0.285828,0.486084,0.81842,2.090454,-0.404358,-0.350952
1381,0.289673,0.486145,0.819031,2.113342,-0.518799,-0.465393
1382,0.276794,0.482544,0.833313,2.044678,-0.213623,-0.38147
1383,0.286682,0.481934,0.833374,2.14386,-0.427246,-0.396729
1384,0.28656,0.487183,0.808899,2.006531,-0.587463,-0.534058
1385,0.287598,0.483887,0.809326,2.052307,-0.518799,-0.473022
1386,0.286926,0.482605,0.832886,2.151489,-0.343323,-0.328064
1387,0.290039,0.484741,0.819763,1.899719,-0.518799,-0.358582
1388,0.26532,0.471863,0.818298,1.968384,-0.404358,-0.480652
1389,0.302795,0.482544,0.832703,2.14386,-0.434875,-0.465393
1390,0.277344,0.487793,0.801025,2.220154,-0.37384,-0.518799
1391,0.293701,0.48407,0.822327,1.937866,-0.480652,-0.411987
1392,0.290466,0.484375,0.818542,2.166748,-0.427246,-0.419617
1393,0.283752,0.484192,0.812927,2.26593,-0.190735,-0.427246
1394,0.283386,0.484009,0.826599,2.01416,-0.38147,-0.404358
1395,0.284851,0.485107,0.815491,2.113342,-0.389099,-0.37384
1396,0.28772,0.489441,0.827087,2.281189,-0.411987,-0.358582
1397,0.283081,0.48999,0.795166,2.151489,-0.564575,-0.480652
1398,0.289795,0.486023,0.830078,1.869202,-0.671387,-0.442505
1399,0.281311,0.482178,0.821777,2.113342,-0.679016,-0.457764
1400,0.288879,0.488037,0.814514,2.258301,-0.50354,-0.434875
1401,0.283875,0.484009,0.814697,2.174377,-0.442505,-0.37384
1402,0.300476,0.485107,0.811401,1.998901,-0.480652,-0.396729
1403,0.27533,0.482178,0.81897,2.113342,-0.205994,-0.442505
1404,0.291321,0.483276,0.831055,2.182007,-0.37384,-0.396729
1405,0.283264,0.485535,0.808411,2.037048,-0.541687,-0.495911
1406,0.291687,0.486938,0.809509,1.960754,-0.526428,-0.473022
1407,0.286194,0.483826,0.823486,2.13623,-0.167847,-0.434875
1408,0.282715,0.485657,0.822815,1.991272,-0.556946,-0.350952
1409,0.279907,0.475098,0.813477,1.899719,-0.411987,-0.350952
1410,0.289551,0.478882,0.823181,2.288818,-0.244141,-0.335693
1411,0.28479,0.488464,0.801392,2.189636,-0.396729,-0.434875
1412,0.287048,0.484192,0.820801,1.88446,-0.549316,-0.389099
1413,0.283936,0.481995,0.829163,1.960754,-0.534058,-0.457764
1414,0.286926,0.482849,0.815247,2.090454,-0.358582,-0.50354
1415,0.286621,0.484375,0.812134,1.907349,-0.572205,-0.549316
1416,0.288757,0.487976,0.808899,2.166748,-0.419617,-0.38147
1417,0.284668,0.483948,0.826538,2.227783,-0.305176,-0.427246
1418,0.283936,0.483276,0.817749,2.059937,-0.564575,-0.434875
1419,0.286011,0.487488,0.809998,1.88446,-0.564575,-0.450134
1420,0.285767,0.486267,0.81958,2.128601,-0.305176,-0.50354
1421,0.287476,0.482788,0.82605,1.808167,-0.518799,-0.465393
1422,0.282471,0.485046,0.81189,2.113342,-0.473022,-0.473022
1423,0.288513,0.484375,0.817871,2.319336,-0.320435,-0.442505
1424,0.282776,0.486084,0.819031,2.128601,-0.404358,-0.396729
1425,0.292969,0.489441,0.815735,1.953125,-0.457764,-0.37384
1426,0.280518,0.483398,0.838562,2.059937,-0.305176,-0.419617
1427,0.285767,0.485168,0.825256,2.182007,-0.556946,-0.389099
1428,0.285461,0.483948,0.804504,2.02179,-0.740051,-0.473022
1429,0.289246,0.485107,0.817322,2.227783,-0.289917,-0.411987
1430,0.28241,0.486084,0.825989,2.166748,-0.465393,-0.37384
1431,0.279175,0.483337,0.834656,1.701355,-0.50354,-0.473022
1432,0.290283,0.481934,0.823669,2.151489,-0.488281,-0.541687
1433,0.289856,0.488647,0.807739,2.319336,-0.427246,-0.419617
1434,0.292175,0.490479,0.806702,2.159119,-0.411987,-0.442505
1435,0.280884,0.482788,0.828308,1.983643,-0.25177,-0.404358
1436,0.286621,0.486328,0.810852,2.052307,-0.419617,-0.457764
1437,0.284546,0.485596,0.81781,1.983643,-0.350952,-0.480652
1438,0.286011,0.484985,0.818237,2.128601,-0.343323,-0.404358
1439,0.283386,0.486328,0.818481,2.067566,-0.350952,-0.366211
1440,0.280945,0.484619,0.822388,2.044678,-0.526428,-0.259399
1441,0.285889,0.486816,0.821472,2.14386,-0.38147,-0.465393
1442,0.28363,0.486145,0.807434,2.067566,-0.389099,-0.350952
1443,0.280334,0.481995,0.815674,2.13623,-0.488281,-0.350952
1444,0.289856,0.484131,0.821533,1.968384,-0.534058,-0.328064
1445,0.279724,0.481323,0.807373,2.204895,-0.411987,-0.37384
1446,0.289307,0.482666,0.82196,1.960754,-0.511169,-0.495911
1447,0.291687,0.484192,0.813965,2.059937,-0.450134,-0.389099
1448,0.285217,0.481689,0.819031,2.174377,-0.343323,-0.480652
1449,0.286255,0.483887,0.824402,2.113342,-0.434875,-0.389099
1450,0.286499,0.483154,0.813843,2.02179,-0.663757,-0.427246
1451,0.286011,0.483704,0.814087,2.296448,-0.343323,-0.427246
1452,0.285583,0.484924,0.818115,2.029419,-0.610352,-0.480652
1453,0.285217,0.485718,0.817871,1.953125,-0.534058,-0.511169
1454,0.283752,0.484497,0.818542,2.204895,-0.358582,-0.442505
1455,0.288269,0.483337,0.81781,2.159119,-0.450134,-0.267029
1456,0.288086,0.483704,0.817505,1.937866,-0.50354,-0.38147
1457,0.286804,0.486511,0.817322,2.204895,-0.389099,-0.389099
1458,0.283264,0.485046,0.821899,2.220154,-0.328064,-0.427246
1459,0.284668,0.484802,0.820679,2.006531,-0.549316,-0.396729
1460,0.286255,0.485046,0.817932,2.044678,-0.549316,-0.511169
1461,0.285645,0.485901,0.819397,2.27356,-0.37384,-0.427246
1462,0.285461,0.485229,0.817566,1.945496,-0.617981,-0.450134
1463,0.286438,0.486084,0.816833,1.953125,-0.549316,-0.50354
1464,0.286377,0.484436,0.819092,2.113342,-0.282288,-0.50354
1465,0.286682,0.486694,0.820068,2.067566,-0.297546,-0.495911
1466,0.287598,0.485413,0.816406,2.02179,-0.541687,-0.450134
1467,0.28833,0.487061,0.815613,1.991272,-0.511169,-0.427246
1468,0.287598,0.484741,0.816223,2.174377,-0.389099,-0.495911
1469,0.286743,0.483948,0.81958,2.082825,-0.419617,-0.518799
1470,0.288086,0.482727,0.818542,1.976013,-0.511169,-0.442505
1471,0.287598,0.481323,0.819031,2.098083,-0.38147,-0.473022
1472,0.287781,0.483826,0.818542,2.067566,-0.37384,-0.427246
1473,0.287659,0.485474,0.818665,2.120972,-0.366211,-0.389099
1474,0.28479,0.484192,0.820435,2.13623,-0.358582,-0.465393
1475,0.283569,0.483887,0.820496,2.151489,-0.419617,-0.404358
1476,0.284973,0.485779,0.819214,2.105713,-0.320435,-0.457764
1477,0.285034,0.485229,0.81842,1.983643,-0.389099,-0.450134
1478,0.287048,0.484375,0.816895,2.052307,-0.297546,-0.473022
1479,0.285217,0.484924,0.81781,1.998901,-0.366211,-0.366211
1480,0.284973,0.487305,0.82074,1.983643,-0.38147,-0.389099
1481,0.285034,0.486206,0.819214,2.02179,-0.473022,-0.434875
1482,0.284607,0.487183,0.817444,2.029419,-0.541687,-0.511169
1483,0.28595,0.486511,0.816772,1.976013,-0.465393,-0.450134
1484,0.287231,0.487244,0.82135,2.037048,-0.328064,-0.305176
1485,0.28717,0.484802,0.821472,2.113342,-0.411987,-0.411987
1486,0.286377,0.484741,0.81665,2.159119,-0.411987,-0.335693
1487,0.287292,0.485413,0.821533,2.052307,-0.389099,-0.358582
1488,0.285889,0.48584,0.81897,2.01416,-0.396729,-0.389099
1489,0.288269,0.484985,0.818481,2.098083,-0.457764,-0.38147
1490,0.286804,0.484253,0.818787,2.037048,-0.488281,-0.335693
1491,0.289001,0.481506,0.815918,2.113342,-0.511169,-0.587463
1492,0.285583,0.483765,0.816467,2.174377,-0.442505,-0.572205
1493,0.287903,0.48407,0.819519,2.204895,-0.320435,-0.434875
1494,0.286011,0.482727,0.818298,2.13623,-0.366211,-0.396729
1495,0.28595,0.483582,0.818054,2.052307,-0.457764,-0.473022
1496,0.286011,0.483154,0.81604,2.02179,-0.320435,-0.495911
1497,0.285034,0.485779,0.820923,2.113342,-0.335693,-0.495911
1498,0.285034,0.485718,0.820435,2.105713,-0.457764,-0.427246
1499,0.282959,0.486389,0.819519,2.037048,-0.480652,-0.457764
1500,0.286011,0.484802,0.81781,2.159119,-0.434875,-0.457764
1501,0.285217,0.483398,0.815735,2.174377,-0.457764,-0.396729
1502,0.282776,0.484131,0.818481,2.090454,-0.579834,-0.389099
1503,0.283691,0.486511,0.817139,2.204895,-0.320435,-0.442505
1504,0.28479,0.486328,0.816467,2.075195,-0.411987,-0.495911
1505,0.283691,0.485535,0.815063,1.88446,-0.442505,-0.442505
1506,0.286316,0.483948,0.815979,1.930237,-0.465393,-0.541687
1507,0.283752,0.483826,0.815979,2.090454,-0.396729,-0.587463
1508,0.284973,0.482849,0.819519,2.227783,-0.389099,-0.457764
1509,0.286499,0.484497,0.813965,1.968384,-0.473022,-0.473022
1510,0.285095,0.485596,0.814331,1.976013,-0.442505,-0.457764
1511,0.286438,0.486084,0.817871,2.13623,-0.297546,-0.335693
1512,0.287659,0.483765,0.816956,2.044678,-0.328064,-0.396729
1513,0.289246,0.483582,0.819092,1.998901,-0.457764,-0.465393
1514,0.285461,0.486023,0.818909,2.105713,-0.396729,-0.389099
1515,0.286987,0.485474,0.820007,2.098083,-0.419617,-0.465393
1516,0.287537,0.485046,0.818481,2.029419,-0.434875,-0.427246
1517,0.284607,0.483582,0.814514,1.991272,-0.404358,-0.442505
1518,0.284973,0.483521,0.817749,2.075195,-0.328064,-0.411987
1519,0.284729,0.484497,0.818176,2.174377,-0.297546,-0.389099
1520,0.284973,0.485779,0.820984,2.059937,-0.465393,-0.434875
1521,0.28595,0.484436,0.81842,2.13623,-0.427246,-0.343323
1522,0.284912,0.485168,0.819946,2.258301,-0.38147,-0.389099
1523,0.285767,0.486633,0.818054,2.235413,-0.343323,-0.434875
1524,0.283386,0.487122,0.816956,2.090454,-0.534058,-0.427246
1525,0.284119,0.48761,0.817505,2.059937,-0.488281,-0.450134
1526,0.284363,0.485535,0.817749,2.090454,-0.389099,-0.419617
1527,0.28479,0.486389,0.817017,2.166748,-0.38147,-0.473022
1528,0.28241,0.484314,0.817993,2.174377,-0.312805,-0.488281
1529,0.28656,0.485413,0.819702,2.098083,-0.37384,-0.488281
1530,0.286316,0.485046,0.820374,2.174377,-0.320435,-0.488281
1531,0.286499,0.485657,0.821777,2.098083,-0.38147,-0.404358
1532,0.286438,0.484314,0.817322,2.037048,-0.404358,-0.457764
1533,0.287598,0.48407,0.815247,2.067566,-0.465393,-0.38147
1534,0.28479,0.484741,0.818665,2.13623,-0.465393,-0.350952
1535,0.28717,0.483826,0.817017,2.113342,-0.442505,-0.404358
1536,0.285217,0.482788,0.814148,2.14386,-0.457764,-0.312805
1537,0.285767,0.483643,0.81897,2.166748,-0.37384,-0.37384
1538,0.284912,0.483154,0.81842,2.128601,-0.320435,-0.396729
1539,0.285522,0.483948,0.819885,1.991272,-0.328064,-0.473022
1540,0.283752,0.485596,0.819519,2.044678,-0.274658,-0.473022
1541,0.285645,0.485535,0.819824,2.044678,-0.358582,-0.38147
1542,0.283081,0.485535,0.820984,2.075195,-0.442505,-0.267029
1543,0.285767,0.485352,0.814331,2.113342,-0.457764,-0.358582
1544,0.288696,0.484863,0.816895,2.13623,-0.511169,-0.404358
1545,0.284668,0.484192,0.815308,2.082825,-0.511169,-0.404358
1546,0.285034,0.484924,0.818604,1.968384,-0.442505,-0.404358
1547,0.287659,0.484985,0.817688,2.059937,-0.396729,-0.442505
1548,0.284607,0.484436,0.817688,2.037048,-0.450134,-0.511169
1549,0.28717,0.486816,0.816711,1.983643,-0.442505,-0.473022
1550,0.28479,0.483643,0.815491,1.976013,-0.37384,-0.427246
1551,0.285889,0.482666,0.819153,2.14386,-0.343323,-0.488281
1552,0.284546,0.483521,0.820435,2.098083,-0.343323,-0.37384
1553,0.28595,0.484863,0.822205,2.052307,-0.457764,-0.396729
1554,0.284302,0.483521,0.817505,1.983643,-0.465393,-0.404358
1555,0.284302,0.482605,0.820068,2.01416,-0.38147,-0.473022
1556,0.285034,0.484497,0.819336,2.052307,-0.37384,-0.457764
1557,0.287048,0.485413,0.821899,2.029419,-0.450134,-0.50354
1558,0.285278,0.485718,0.823242,2.052307,-0.488281,-0.480652
1559,0.287231,0.485474,0.822205,2.02179,-0.518799,-0.411987
1560,0.289185,0.481506,0.818542,2.13623,-0.465393,-0.297546
1561,0.288696,0.483093,0.818176,2.105713,-0.457764,-0.343323
1562,0.286194,0.483887,0.815979,2.044678,-0.419617,-0.526428
1563,0.286743,0.484375,0.816406,2.059937,-0.38147,-0.473022
1564,0.2854,0.486572,0.819153,2.166748,-0.518799,-0.450134
1565,0.286194,0.484619,0.819641,2.113342,-0.556946,-0.434875
1566,0.286255,0.485718,0.819336,2.105713,-0.427246,-0.442505
1567,0.285522,0.48407,0.821106,2.059937,-0.312805,-0.465393
1568,0.284973,0.484558,0.81897,2.059937,-0.343323,-0.366211
1569,0.283997,0.486389,0.816833,2.120972,-0.343323,-0.366211
1570,0.286804,0.484985,0.817749,2.14386,-0.427246,-0.38147
1571,0.285889,0.484436,0.819458,2.166748,-0.366211,-0.450134
1572,0.285278,0.484558,0.818787,2.090454,-0.411987,-0.518799
1573,0.285339,0.486755,0.820435,2.128601,-0.427246,-0.495911
1574,0.284241,0.484985,0.820129,2.120972,-0.427246,-0.480652
1575,0.284363,0.483765,0.818665,2.151489,-0.434875,-0.480652
1576,0.282593,0.48407,0.817627,2.159119,-0.480652,-0.495911
1577,0.286316,0.484192,0.816895,2.113342,-0.473022,-0.442505
1578,0.285645,0.485413,0.818909,2.059937,-0.480652,-0.465393
1579,0.285034,0.485779,0.818298,2.067566,-0.427246,-0.389099
1580,0.284912,0.485779,0.819336,2.105713,-0.480652,-0.366211
1581,0.287109,0.486084,0.819702,2.059937,-0.541687,-0.358582
1582,0.285706,0.485474,0.817444,2.067566,-0.556946,-0.419617
1583,0.287781,0.483643,0.817383,2.01416,-0.534058,-0.434875
1584,0.286865,0.484558,0.816711,2.220154,-0.38147,-0.457764
1585,0.288452,0.486938,0.817444,2.13623,-0.450134,-0.450134
1586,0.28717,0.486145,0.816284,2.090454,-0.404358,-0.526428
1587,0.285828,0.483826,0.818481,2.098083,-0.328064,-0.488281
1588,0.285522,0.484863,0.815735,2.105713,-0.350952,-0.450134
1589,0.287048,0.484619,0.818665,1.983643,-0.282288,-0.404358
1590,0.287659,0.486206,0.819275,2.075195,-0.450134,-0.404358
1591,0.282898,0.486145,0.818665,1.953125,-0.411987,-0.457764
1592,0.283508,0.483704,0.820313,2.006531,-0.358582,-0.50354
1593,0.283508,0.485291,0.819092,2.067566,-0.411987,-0.450134
1594,0.283997,0.485779,0.820618,1.983643,-0.396729,-0.389099
1595,0.284119,0.485107,0.819885,1.983643,-0.465393,-0.473022
1596,0.284424,0.48407,0.813232,2.14386,-0.549316,-0.442505
1597,0.287231,0.485657,0.818848,2.075195,-0.526428,-0.450134
1598,0.287598,0.484619,0.822266,2.182007,-0.480652,-0.434875
1599,0.290283,0.485901,0.815369,1.991272,-0.541687,-0.320435
1600,0.284424,0.483276,0.820618,2.113342,-0.305176,-0.328064
1601,0.28717,0.483093,0.818176,2.151489,-0.358582,-0.465393
1602,0.284363,0.484497,0.816589,1.953125,-0.404358,-0.50354
1603,0.284668,0.483093,0.820557,1.960754,-0.465393,-0.473022
1604,0.285156,0.483215,0.81781,2.26593,-0.358582,-0.328064
1605,0.285645,0.485107,0.820923,1.991272,-0.595093,-0.473022
1606,0.289917,0.484009,0.81665,2.098083,-0.38147,-0.556946
1607,0.284973,0.482666,0.81897,2.281189,-0.152588,-0.465393
1608,0.283936,0.484314,0.819946,2.098083,-0.343323,-0.411987
1609,0.285522,0.482788,0.818481,1.930237,-0.457764,-0.312805
1610,0.286499,0.484375,0.819397,2.02179,-0.396729,-0.389099
1611,0.287598,0.485168,0.819763,2.120972,-0.419617,-0.511169
1612,0.284546,0.483765,0.818848,1.976013,-0.465393,-0.419617
1613,0.282654,0.484741,0.817993,1.968384,-0.518799,-0.473022
1614,0.284485,0.485107,0.815125,2.128601,-0.450134,-0.50354
1615,0.286011,0.485352,0.818115,2.067566,-0.50354,-0.328064
1616,0.286987,0.486755,0.81781,2.105713,-0.328064,-0.480652
1617,0.287476,0.485596,0.8172,2.151489,-0.328064,-0.442505
1618,0.286987,0.485962,0.819153,2.01416,-0.534058,-0.419617
1619,0.28595,0.485779,0.816223,2.105713,-0.427246,-0.389099
1620,0.286072,0.483337,0.818237,2.159119,-0.259399,-0.465393
1621,0.28595,0.484009,0.819336,2.098083,-0.358582,-0.473022
1622,0.28479,0.484436,0.819336,2.01416,-0.495911,-0.404358
1623,0.285095,0.482605,0.819641,2.090454,-0.396729,-0.411987
1624,0.285461,0.483765,0.821533,2.01416,-0.259399,-0.457764
1625,0.285095,0.485229,0.820557,1.968384,-0.350952,-0.473022
1626,0.284058,0.485657,0.820801,2.02179,-0.389099,-0.358582
1627,0.286194,0.486328,0.81842,2.090454,-0.320435,-0.404358
1628,0.286377,0.486389,0.814941,2.098083,-0.465393,-0.457764
1629,0.286926,0.485657,0.814514,2.13623,-0.50354,-0.442505
1630,0.288635,0.482361,0.816895,2.098083,-0.556946,-0.518799
1631,0.285156,0.483582,0.81427,2.029419,-0.50354,-0.541687
1632,0.286194,0.484314,0.81604,2.14386,-0.38147,-0.389099
1633,0.287659,0.484619,0.818481,2.098083,-0.320435,-0.434875
1634,0.287415,0.485596,0.817993,2.067566,-0.350952,-0.404358
1635,0.286133,0.485962,0.817017,2.098083,-0.343323,-0.457764
1636,0.285461,0.487732,0.817688,2.082825,-0.37384,-0.434875
1637,0.287476,0.483704,0.819214,2.082825,-0.450134,-0.427246
1638,0.285583,0.481995,0.819519,2.029419,-0.480652,-0.419617
1639,0.285645,0.485046,0.819885,2.14386,-0.37384,-0.442505
1640,0.285767,0.485046,0.818665,2.13623,-0.37384,-0.366211
1641,0.284546,0.483032,0.818237,2.037048,-0.358582,-0.389099
1642,0.285645,0.48468,0.817383,2.13623,-0.366211,-0.404358
1643,0.288147,0.486938,0.815491,2.113342,-0.343323,-0.38147
1644,0.287354,0.486145,0.815857,1.968384,-0.396729,-0.37384
1645,0.288635,0.484436,0.817444,1.976013,-0.38147,-0.37384
1646,0.286133,0.48468,0.813293,2.067566,-0.358582,-0.427246
1647,0.288696,0.482788,0.818848,2.159119,-0.404358,-0.434875
1648,0.288818,0.483826,0.819214,2.090454,-0.534058,-0.389099
1649,0.287903,0.483398,0.817017,2.128601,-0.518799,-0.396729
1650,0.285217,0.48468,0.815918,2.14386,-0.419617,-0.396729
1651,0.290161,0.483337,0.816467,2.174377,-0.358582,-0.427246
1652,0.286621,0.483887,0.818542,2.029419,-0.411987,-0.495911
1653,0.287231,0.48584,0.814087,2.174377,-0.389099,-0.389099
1654,0.286133,0.483704,0.816223,2.006531,-0.320435,-0.343323
1655,0.285034,0.483521,0.820374,1.968384,-0.434875,-0.366211
1656,0.285156,0.483459,0.818237,2.105713,-0.450134,-0.358582
1657,0.286865,0.483521,0.820068,2.006531,-0.473022,-0.328064
1658,0.286743,0.486389,0.818726,2.113342,-0.50354,-0.320435
1659,0.283447,0.487854,0.820068,2.105713,-0.465393,-0.419617
1660,0.283142,0.484741,0.819824,2.174377,-0.427246,-0.442505
1661,0.28363,0.488098,0.818176,2.113342,-0.488281,-0.457764
1662,0.284729,0.486572,0.820068,2.029419,-0.457764,-0.556946
1663,0.285828,0.486389,0.815247,2.075195,-0.534058,-0.541687
1664,0.285217,0.48645,0.815796,2.105713,-0.473022,-0.465393
1665,0.286682,0.484863,0.817017,2.029419,-0.343323,-0.419617
1666,0.287231,0.485535,0.815613,2.01416,-0.419617,-0.427246
1667,0.291565,0.486633,0.817749,1.991272,-0.511169,-0.549316
1668,0.279907,0.483826,0.823975,1.838684,-0.488281,-0.50354
1669,0.285217,0.484436,0.81781,2.258301,-0.205994,-0.495911
1670,0.280701,0.483826,0.821045,2.090454,-0.495911,-0.465393
1671,0.28363,0.486938,0.817383,1.937866,-0.579834,-0.411987
1672,0.283997,0.486328,0.81543,2.120972,-0.534058,-0.358582
1673,0.28479,0.485291,0.821228,2.296448,-0.350952,-0.335693
1674,0.280823,0.486206,0.812805,2.27356,-0.427246,-0.350952
1675,0.283691,0.486816,0.819397,2.120972,-0.488281,-0.549316
1676,0.286194,0.485413,0.818237,2.14386,-0.37384,-0.396729
1677,0.284912,0.490173,0.813232,2.067566,-0.343323,-0.366211
1678,0.286682,0.485962,0.820984,1.907349,-0.50354,-0.480652
1679,0.286072,0.48584,0.819885,2.01416,-0.495911,-0.50354
1680,0.28833,0.482422,0.816406,2.189636,-0.518799,-0.434875
1681,0.287476,0.483398,0.816528,2.059937,-0.549316,-0.442505
1682,0.287903,0.483459,0.814941,2.235413,-0.389099,-0.411987
1683,0.286987,0.482361,0.82373,2.182007,-0.38147,-0.411987
1684,0.286926,0.482483,0.816528,2.105713,-0.366211,-0.389099
1685,0.286011,0.481628,0.821777,2.189636,-0.389099,-0.312805
1686,0.285522,0.481018,0.821655,2.166748,-0.396729,-0.404358
1687,0.283142,0.482544,0.819641,2.13623,-0.419617,-0.526428
1688,0.282043,0.483643,0.819336,2.151489,-0.442505,-0.396729
1689,0.287048,0.482056,0.817627,2.044678,-0.389099,-0.480652
1690,0.285889,0.481079,0.81665,2.052307,-0.350952,-0.480652
1691,0.28949,0.481689,0.819641,2.13623,-0.389099,-0.366211
1692,0.288696,0.484558,0.817627,2.166748,-0.480652,-0.38147
1693,0.288757,0.486328,0.814758,2.128601,-0.595093,-0.38147
1694,0.286377,0.483521,0.816345,2.174377,-0.473022,-0.518799
1695,0.288025,0.483521,0.815857,2.159119,-0.434875,-0.541687
1696,0.283997,0.482544,0.82196,1.991272,-0.495911,-0.480652
1697,0.286072,0.483459,0.813965,2.006531,-0.473022,-0.465393
1698,0.28363,0.483398,0.817261,2.204895,-0.221252,-0.38147
1699,0.287598,0.483337,0.818726,2.067566,-0.50354,-0.419617
1700,0.284302,0.485107,0.81543,2.044678,-0.495911,-0.488281
1701,0.281677,0.485901,0.821289,2.090454,-0.305176,-0.480652
1702,0.285034,0.485596,0.81781,1.991272,-0.526428,-0.427246
1703,0.283386,0.485352,0.816406,2.082825,-0.549316,-0.50354
1704,0.283875,0.484375,0.813904,2.235413,-0.358582,-0.50354
1705,0.287354,0.485596,0.820068,2.189636,-0.450134,-0.38147
1706,0.283997,0.484192,0.813599,2.01416,-0.617981,-0.404358
1707,0.28894,0.484619,0.816162,2.189636,-0.343323,-0.335693
1708,0.286621,0.485107,0.815613,2.166748,-0.488281,-0.312805
1709,0.289001,0.485046,0.81958,1.960754,-0.579834,-0.38147
1710,0.285339,0.483032,0.814819,2.113342,-0.495911,-0.473022
1711,0.288208,0.484558,0.819397,2.220154,-0.25177,-0.541687
1712,0.284668,0.484497,0.816284,1.991272,-0.434875,-0.335693
1713,0.286194,0.482849,0.817932,2.01416,-0.343323,-0.495911
1714,0.287048,0.481873,0.818237,2.113342,-0.358582,-0.396729
1715,0.288147,0.482544,0.819275,2.044678,-0.465393,-0.434875
1716,0.287292,0.482361,0.82074,2.182007,-0.488281,-0.427246
1717,0.285522,0.482544,0.816101,2.212524,-0.434875,-0.450134
1718,0.282288,0.480957,0.817078,2.075195,-0.457764,-0.37384
1719,0.287231,0.484924,0.820923,2.075195,-0.518799,-0.434875
1720,0.28363,0.486816,0.813538,2.174377,-0.450134,-0.427246
1721,0.286865,0.486206,0.818665,2.13623,-0.37384,-0.488281
1722,0.285095,0.485413,0.822693,2.052307,-0.442505,-0.511169
1723,0.283752,0.484924,0.818176,2.052307,-0.50354,-0.587463
1724,0.2854,0.486084,0.815979,2.166748,-0.289917,-0.427246
1725,0.286499,0.487427,0.813049,2.082825,-0.457764,-0.411987
1726,0.283813,0.487488,0.816345,1.960754,-0.473022,-0.427246
1727,0.285095,0.485901,0.816101,2.113342,-0.465393,-0.473022
1728,0.287231,0.485901,0.814819,2.113342,-0.556946,-0.396729
1729,0.286255,0.483948,0.818237,2.01416,-0.50354,-0.411987
1730,0.284058,0.483398,0.812683,2.128601,-0.442505,-0.366211
1731,0.286865,0.48291,0.821045,1.976013,-0.396729,-0.434875
1732,0.285889,0.482727,0.819153,2.059937,-0.556946,-0.427246
1733,0.288574,0.4823,0.821655,2.113342,-0.389099,-0.442505
1734,0.283081,0.481995,0.81958,2.090454,-0.442505,-0.427246
1735,0.28717,0.481445,0.815186,2.044678,-0.404358,-0.427246
1736,0.288208,0.482178,0.820129,2.090454,-0.396729,-0.335693
1737,0.287476,0.485352,0.818176,2.151489,-0.495911,-0.350952
1738,0.286987,0.483887,0.820801,2.02179,-0.541687,-0.495911
1739,0.286621,0.483276,0.820984,2.059937,-0.427246,-0.457764
1740,0.28717,0.485474,0.818481,2.120972,-0.450134,-0.450134
1741,0.286072,0.486389,0.815918,2.113342,-0.419617,-0.37384
1742,0.286316,0.485535,0.816833,2.13623,-0.427246,-0.480652
1743,0.285095,0.485962,0.819458,2.082825,-0.541687,-0.518799
1744,0.284546,0.485962,0.817505,2.113342,-0.411987,-0.465393
1745,0.283203,0.486206,0.818848,2.128601,-0.411987,-0.419617
1746,0.284485,0.486938,0.819641,2.13623,-0.38147,-0.450134
1747,0.285645,0.486755,0.818848,2.166748,-0.396729,-0.396729
1748,0.285645,0.486389,0.819336,2.120972,-0.320435,-0.442505
1749,0.286194,0.486328,0.818787,2.105713,-0.404358,-0.419617
1750,0.284607,0.483093,0.815979,2.098083,-0.480652,-0.366211
1751,0.287476,0.484924,0.816223,2.128601,-0.434875,-0.320435
1752,0.288513,0.483765,0.817627,2.052307,-0.50354,-0.450134
1753,0.287781,0.482788,0.819946,2.113342,-0.518799,-0.404358
1754,0.287903,0.484314,0.82019,2.204895,-0.50354,-0.366211
1755,0.290649,0.484924,0.817871,2.182007,-0.434875,-0.465393
1756,0.285095,0.484375,0.817749,2.128601,-0.465393,-0.480652
1757,0.28595,0.48468,0.818665,2.174377,-0.427246,-0.427246
1758,0.285095,0.484619,0.816711,2.14386,-0.465393,-0.404358
1759,0.284729,0.485779,0.817932,2.13623,-0.457764,-0.419617
1760,0.284546,0.487427,0.817444,2.113342,-0.534058,-0.457764
1761,0.287231,0.484985,0.817383,2.151489,-0.473022,-0.526428
1762,0.282166,0.484924,0.818848,2.098083,-0.320435,-0.434875
1763,0.287476,0.484131,0.818115,2.067566,-0.434875,-0.389099
1764,0.285645,0.484131,0.8172,2.128601,-0.389099,-0.389099
1765,0.286011,0.484497,0.818787,2.174377,-0.419617,-0.450134
1766,0.284119,0.485107,0.81665,2.090454,-0.465393,-0.404358
1767,0.287354,0.485291,0.816345,2.105713,-0.450134,-0.312805
1768,0.286865,0.484009,0.820374,2.120972,-0.328064,-0.404358
1769,0.28595,0.486084,0.816528,1.976013,-0.526428,-0.457764
1770,0.287781,0.485107,0.814209,2.052307,-0.434875,-0.434875
1771,0.286499,0.484497,0.815979,2.082825,-0.366211,-0.495911
1772,0.287842,0.485413,0.814209,2.120972,-0.488281,-0.442505
1773,0.287354,0.484619,0.816284,2.052307,-0.50354,-0.419617
1774,0.286133,0.483948,0.817444,2.13623,-0.427246,-0.366211
1775,0.284485,0.484375,0.817139,2.090454,-0.572205,-0.450134
1776,0.286621,0.484802,0.819946,2.128601,-0.465393,-0.511169
1777,0.286194,0.485291,0.817078,2.204895,-0.411987,-0.427246
1778,0.285583,0.484924,0.820251,2.182007,-0.274658,-0.419617
1779,0.285583,0.483154,0.817993,2.13623,-0.37384,-0.450134
1780,0.287354,0.483032,0.818176,2.098083,-0.358582,-0.434875
1781,0.284973,0.483459,0.819641,2.105713,-0.427246,-0.450134
1782,0.282959,0.484375,0.816284,2.13623,-0.358582,-0.473022
1783,0.284851,0.485474,0.817078,2.13623,-0.38147,-0.495911
1784,0.28656,0.486877,0.817139,2.059937,-0.419617,-0.511169
1785,0.28479,0.485901,0.815002,2.113342,-0.328064,-0.427246
1786,0.284485,0.486023,0.819336,2.067566,-0.442505,-0.465393
1787,0.287598,0.485291,0.819824,2.098083,-0.427246,-0.404358
1788,0.283386,0.487305,0.817932,1.976013,-0.350952,-0.427246
1789,0.286011,0.486389,0.820313,2.037048,-0.38147,-0.37384
1790,0.285522,0.485901,0.815063,2.075195,-0.419617,-0.320435
1791,0.286072,0.484619,0.819092,2.067566,-0.335693,-0.465393
1792,0.284851,0.483887,0.814697,2.090454,-0.358582,-0.480652
1793,0.284851,0.484131,0.81665,2.098083,-0.411987,-0.404358
1794,0.286194,0.483582,0.817139,2.090454,-0.404358,-0.457764
1795,0.285156,0.483948,0.81842,2.120972,-0.38147,-0.457764
1796,0.287537,0.485901,0.817322,2.037048,-0.465393,-0.450134
1797,0.286377,0.483215,0.815613,2.113342,-0.396729,-0.404358
1798,0.288696,0.483215,0.822327,2.14386,-0.442505,-0.37384
1799,0.286987,0.483643,0.818604,2.14386,-0.457764,-0.404358
1800,0.285217,0.484375,0.819092,2.067566,-0.541687,-0.434875
1801,0.286926,0.484497,0.820068,2.082825,-0.50354,-0.389099
1802,0.284729,0.485596,0.819092,2.098083,-0.526428,-0.473022
1803,0.284851,0.485474,0.817322,2.105713,-0.465393,-0.473022
1804,0.286377,0.486084,0.818604,2.14386,-0.389099,-0.358582
1805,0.284424,0.484924,0.818665,2.14386,-0.473022,-0.396729
1806,0.286011,0.485168,0.817932,2.090454,-0.587463,-0.50354
1807,0.283752,0.484924,0.816101,2.098083,-0.526428,-0.534058
1808,0.285583,0.487061,0.817322,2.128601,-0.465393,-0.50354
1809,0.285706,0.486755,0.815308,2.105713,-0.282288,-0.434875
1810,0.2854,0.484741,0.818237,2.090454,-0.274658,-0.37384
1811,0.286011,0.483276,0.818787,2.197266,-0.350952,-0.389099
1812,0.285339,0.483948,0.817322,2.098083,-0.396729,-0.473022
1813,0.287476,0.482117,0.820923,2.052307,-0.526428,-0.411987
1814,0.287292,0.481873,0.818848,2.037048,-0.434875,-0.434875
1815,0.283936,0.483765,0.817871,2.120972,-0.411987,-0.480652
1816,0.286438,0.483887,0.820007,2.105713,-0.442505,-0.488281
1817,0.285339,0.485352,0.82019,2.02179,-0.480652,-0.427246
1818,0.285217,0.485107,0.817322,2.044678,-0.50354,-0.450134
1819,0.287903,0.484863,0.819153,2.037048,-0.495911,-0.419617
1820,0.28595,0.48468,0.820313,2.01416,-0.411987,-0.488281
1821,0.286011,0.486389,0.816345,2.067566,-0.488281,-0.465393
1822,0.28656,0.486694,0.81781,2.098083,-0.473022,-0.343323
1823,0.285706,0.485046,0.819702,2.082825,-0.419617,-0.328064
1824,0.285217,0.485352,0.819214,2.182007,-0.320435,-0.358582
1825,0.2854,0.487061,0.817505,2.13623,-0.419617,-0.37384
1826,0.284729,0.487061,0.817261,2.128601,-0.389099,-0.465393
1827,0.28656,0.484619,0.820923,2.13623,-0.350952,-0.427246
1828,0.285461,0.484985,0.820313,2.14386,-0.389099,-0.404358
1829,0.287659,0.487793,0.819275,2.075195,-0.473022,-0.37384
1830,0.287598,0.485046,0.816895,2.182007,-0.411987,-0.358582
1831,0.285706,0.485901,0.816101,2.14386,-0.434875,-0.38147
1832,0.287781,0.485168,0.82019,2.059937,-0.411987,-0.396729
1833,0.287476,0.483215,0.819397,2.059937,-0.411987,-0.419617
1834,0.287354,0.483459,0.820801,2.029419,-0.518799,-0.427246
1835,0.286865,0.481995,0.819336,2.128601,-0.564575,-0.450134
1836,0.286682,0.483276,0.81897,2.067566,-0.488281,-0.488281
1837,0.286133,0.485291,0.820251,2.159119,-0.442505,-0.442505
1838,0.287231,0.484192,0.819153,2.13623,-0.526428,-0.427246
1839,0.285767,0.483826,0.819824,2.075195,-0.442505,-0.457764
1840,0.285706,0.48407,0.819763,2.113342,-0.465393,-0.534058
1841,0.285522,0.483337,0.818054,2.037048,-0.50354,-0.473022
1842,0.286072,0.484558,0.818542,2.082825,-0.473022,-0.457764
1843,0.286011,0.486145,0.815918,2.02179,-0.366211,-0.427246
1844,0.28418,0.486023,0.81543,2.044678,-0.473022,-0.541687
1845,0.284424,0.483459,0.816162,2.082825,-0.457764,-0.450134
1846,0.286621,0.484314,0.819641,2.082825,-0.450134,-0.473022
1847,0.287964,0.486572,0.820251,2.029419,-0.511169,-0.404358
1848,0.286316,0.484436,0.818237,2.098083,-0.389099,-0.427246
1849,0.286621,0.483704,0.816284,2.082825,-0.480652,-0.450134
1850,0.285767,0.484009,0.818359,2.105713,-0.320435,-0.50354
1851,0.286011,0.483887,0.819824,2.120972,-0.282288,-0.495911
1852,0.286255,0.484802,0.819458,2.044678,-0.389099,-0.450134
1853,0.286926,0.484009,0.818115,2.067566,-0.419617,-0.389099
1854,0.286316,0.483459,0.820374,2.029419,-0.442505,-0.396729
1855,0.28656,0.484985,0.817505,2.128601,-0.480652,-0.404358
1856,0.285645,0.485474,0.816895,2.098083,-0.404358,-0.389099
1857,0.286499,0.486023,0.819397,2.120972,-0.37384,-0.37384
1858,0.286011,0.486694,0.820129,2.105713,-0.480652,-0.442505
1859,0.2854,0.48584,0.817505,2.067566,-0.465393,-0.473022
1860,0.285156,0.484741,0.81781,2.13623,-0.411987,-0.488281
1861,0.285339,0.484497,0.81842,2.128601,-0.419617,-0.457764
1862,0.28479,0.484009,0.817932,2.182007,-0.427246,-0.465393
1863,0.285828,0.485291,0.818481,2.052307,-0.419617,-0.411987
1864,0.287537,0.484741,0.816162,2.13623,-0.442505,-0.366211
1865,0.287598,0.485596,0.817139,2.082825,-0.419617,-0.419617
1866,0.287109,0.484253,0.818481,2.029419,-0.457764,-0.38147
1867,0.285095,0.485535,0.819336,2.082825,-0.434875,-0.335693
1868,0.286377,0.485779,0.818726,2.120972,-0.350952,-0.473022
1869,0.286255,0.484558,0.815735,2.14386,-0.350952,-0.541687
1870,0.286255,0.485229,0.817627,2.120972,-0.320435,-0.419617
1871,0.285339,0.483948,0.817261,2.128601,-0.434875,-0.50354
1872,0.2854,0.486328,0.819275,2.105713,-0.480652,-0.564575
1873,0.284607,0.484741,0.818115,2.067566,-0.549316,-0.511169
1874,0.286133,0.486694,0.817078,2.14386,-0.495911,-0.404358
1875,0.287476,0.485657,0.81958,2.197266,-0.427246,-0.38147
1876,0.285828,0.485168,0.820679,2.105713,-0.457764,-0.320435
1877,0.286865,0.483276,0.818787,2.090454,-0.37384,-0.343323
1878,0.286255,0.483948,0.819275,2.01416,-0.50354,-0.350952
1879,0.285217,0.484497,0.820251,2.044678,-0.442505,-0.389099
1880,0.283325,0.483582,0.819885,2.120972,-0.389099,-0.38147
1881,0.287964,0.482849,0.819885,2.006531,-0.37384,-0.411987
1882,0.288696,0.484863,0.820129,2.067566,-0.350952,-0.411987
1883,0.286377,0.484924,0.818115,2.159119,-0.350952,-0.411987
1884,0.287292,0.484863,0.818237,2.075195,-0.442505,-0.38147
1885,0.285583,0.48407,0.820068,2.02179,-0.38147,-0.38147
1886,0.285522,0.484741,0.819336,2.029419,-0.366211,-0.427246
1887,0.285156,0.485352,0.819702,2.059937,-0.358582,-0.465393
1888,0.285156,0.48645,0.820251,2.113342,-0.366211,-0.442505
1889,0.287476,0.483887,0.819092,2.128601,-0.37384,-0.534058
1890,0.286987,0.485596,0.816895,2.075195,-0.350952,-0.427246
1891,0.287537,0.484863,0.814758,2.075195,-0.495911,-0.389099
1892,0.287659,0.485291,0.817871,2.059937,-0.450134,-0.427246
1893,0.285034,0.483459,0.818359,2.044678,-0.488281,-0.488281
1894,0.283569,0.483704,0.819397,2.006531,-0.564575,-0.473022
1895,0.28363,0.483704,0.818604,2.044678,-0.442505,-0.434875
1896,0.285339,0.483154,0.817688,2.090454,-0.404358,-0.473022
1897,0.287109,0.481873,0.817749,2.113342,-0.358582,-0.434875
1898,0.287354,0.484436,0.822144,2.105713,-0.396729,-0.488281
1899,0.286133,0.484314,0.817383,2.120972,-0.465393,-0.572205
1900,0.289734,0.484131,0.818604,2.13623,-0.457764,-0.473022
1901,0.288269,0.483704,0.821533,2.082825,-0.465393,-0.480652
1902,0.285217,0.483276,0.816772,2.044678,-0.419617,-0.434875
1903,0.285828,0.484375,0.813843,2.189636,-0.427246,-0.358582
1904,0.289246,0.484985,0.817078,2.13623,-0.350952,-0.37384
1905,0.287109,0.484497,0.818298,2.14386,-0.450134,-0.305176
1906,0.288818,0.484436,0.818726,2.113342,-0.37384,-0.411987
1907,0.285461,0.486206,0.814331,2.113342,-0.427246,-0.335693
1908,0.287903,0.484802,0.819702,2.090454,-0.328064,-0.411987
1909,0.286682,0.487122,0.818176,2.14386,-0.38147,-0.495911
1910,0.286194,0.486633,0.821472,2.067566,-0.389099,-0.473022
1911,0.287048,0.483887,0.817078,2.098083,-0.427246,-0.434875
1912,0.288147,0.484314,0.817505,2.098083,-0.495911,-0.427246
1913,0.286804,0.483765,0.815613,2.151489,-0.37384,-0.488281
1914,0.284729,0.485291,0.816467,2.090454,-0.328064,-0.473022
1915,0.284912,0.484436,0.817017,2.082825,-0.411987,-0.495911
1916,0.28595,0.484131,0.816406,2.044678,-0.434875,-0.396729
1917,0.286743,0.484741,0.818787,2.029419,-0.465393,-0.389099
1918,0.285828,0.485718,0.81604,2.13623,-0.396729,-0.358582
1919,0.284424,0.484863,0.819763,2.090454,-0.37384,-0.366211
1920,0.286316,0.484009,0.816895,2.044678,-0.404358,-0.419617
1921,0.286865,0.483704,0.819946,2.02179,-0.404358,-0.427246
1922,0.286011,0.484863,0.817505,1.998901,-0.358582,-0.50354
1923,0.284058,0.483948,0.814453,2.044678,-0.411987,-0.427246
1924,0.2854,0.484802,0.815735,2.113342,-0.480652,-0.450134
1925,0.284546,0.486755,0.817017,2.082825,-0.419617,-0.328064
1926,0.286865,0.484497,0.81897,2.120972,-0.366211,-0.419617
1927,0.285583,0.484314,0.817871,2.01416,-0.350952,-0.495911
1928,0.285706,0.484436,0.81781,2.075195,-0.411987,-0.442505
1929,0.287048,0.483032,0.815247,2.075195,-0.404358,-0.450134
1930,0.286804,0.482788,0.817932,2.067566,-0.450134,-0.434875
1931,0.286926,0.483521,0.818542,2.02179,-0.350952,-0.434875
1932,0.286499,0.481934,0.817139,2.151489,-0.480652,-0.419617
1933,0.285339,0.484497,0.817078,2.151489,-0.465393,-0.389099
1934,0.284485,0.486511,0.816101,2.14386,-0.350952,-0.442505
1935,0.287659,0.486267,0.817322,2.113342,-0.389099,-0.419617
1936,0.285217,0.485107,0.817139,2.113342,-0.457764,-0.434875
1937,0.285095,0.485046,0.81781,2.075195,-0.495911,-0.404358
1938,0.287292,0.485352,0.817261,2.113342,-0.465393,-0.38147
1939,0.285156,0.484741,0.816772,2.02179,-0.549316,-0.427246
1940,0.285706,0.483948,0.81781,2.029419,-0.488281,-0.442505
1941,0.2854,0.483643,0.817627,2.082825,-0.350952,-0.358582
1942,0.284485,0.484253,0.820313,2.075195,-0.37384,-0.442505
1943,0.285889,0.48468,0.819336,2.098083,-0.366211,-0.419617
1944,0.283813,0.483459,0.816284,1.998901,-0.419617,-0.389099
1945,0.287231,0.483215,0.820251,2.052307,-0.37384,-0.457764
1946,0.285034,0.481201,0.822388,2.037048,-0.358582,-0.442505
1947,0.281921,0.487183,0.839172,2.082825,-0.282288,-0.335693
1948,0.280334,0.469177,0.80249,2.311707,-0.63324,-0.25177
1949,0.297546,0.490051,0.830261,2.464294,0.183105,-0.732422
1950,0.308533,0.478271,0.812012,2.693176,-0.25177,-0.061035
1951,0.280701,0.478699,0.825684,1.060486,-0.946045,-0.587463
1952,0.293274,0.481567,0.808533,1.800537,-1.029968,-0.541687
1953,0.29187,0.494812,0.80603,2.822876,-0.053406,-0.556946
1954,0.281311,0.496277,0.821472,2.563477,0.091553,-0.534058
1955,0.285278,0.487183,0.818176,1.670837,-0.656128,-0.228882
1956,0.289734,0.474304,0.805786,1.464844,-1.091003,-0.282288
1957,0.280762,0.48584,0.812866,2.677917,0.358582,-0.473022
1958,0.296875,0.475586,0.822632,2.441406,-0.106812,-0.259399
1959,0.282837,0.482483,0.822571,1.220703,-0.976563,-0.640869
1960,0.281067,0.487427,0.815491,1.930237,-0.656128,-0.656128
1961,0.287415,0.487549,0.820862,2.281189,-0.061035,-0.495911
1962,0.284485,0.476624,0.819824,1.304626,-0.961304,-0.37384
1963,0.282959,0.482056,0.82074,1.686096,-0.785828,-0.518799
1964,0.281189,0.489563,0.825439,2.876282,0.007629,-0.442505
1965,0.283752,0.486267,0.818359,2.624512,-0.205994,-0.228882
1966,0.286804,0.480591,0.816895,1.51062,-0.869751,-0.549316
1967,0.289551,0.482178,0.812439,2.456665,-0.022888,-0.602722
1968,0.286011,0.490173,0.818481,3.02887,0.053406,-0.457764
1969,0.289368,0.484863,0.81897,1.89209,-0.75531,-0.38147
1970,0.28595,0.481689,0.809631,1.296997,-1.113892,-0.488281
1971,0.287109,0.487488,0.812317,2.166748,-0.442505,-0.564575
1972,0.280396,0.493103,0.818298,2.891541,0.282288,-0.50354
1973,0.286072,0.489197,0.818054,2.235413,-0.213623,-0.350952
1974,0.289612,0.485291,0.81189,1.724243,-0.63324,-0.427246
1975,0.285339,0.48584,0.815796,2.479553,-0.053406,-0.396729
1976,0.286621,0.481506,0.822632,2.479553,-0.015259,-0.411987
