,accX,accY,accZ,gyroX,gyroY,gyroZ
0,0.325195,0.332764,0.812256,14.213562,-4.165649,-62.583923
1,0.331909,0.203857,0.774475,17.89856,2.044678,-150.131226
2,0.331299,0.22406,0.950989,9.315491,-0.343323,-146.873474
3,0.332703,0.240112,1.060791,-3.196716,5.599976,-122.924805
4,0.321716,0.236267,0.961304,-2.670288,3.890991,-108.192444
5,0.24231,0.225586,0.988098,2.540588,2.006531,-92.681885
6,0.179626,0.21582,0.957642,10.5896,-0.656128,-76.751709
7,-0.063599,0.500183,0.915405,11.772156,-0.396729,-60.516357
8,0.044067,0.079468,0.96637,14.732361,0.030518,-47.157288
9,-0.030212,-0.142029,0.982056,23.445129,-2.632141,-43.540955
10,-0.080322,-0.188782,0.992249,23.963928,-5.554199,-40.802002
11,-0.036926,-0.206665,0.998352,17.425537,-5.28717,-34.286499
12,0.032532,-0.236755,0.986084,8.476257,-1.853943,-22.68219
13,0.037842,-0.127686,0.973389,-14.25933,6.576538,-7.69043
14,0.072449,-0.033569,0.997742,-25.72631,10.345459,-8.155823
15,-0.045166,-0.381592,1.143066,-41.96929,15.464783,-7.446289
16,0.076172,-0.110474,1.063843,-85.03723,25.543213,-19.691467
17,0.170654,0.095032,0.971375,-108.0856,29.602051,-25.634766
18,0.148865,0.095703,0.917236,-53.61938,16.51001,-7.43103
19,-0.105957,-0.324524,0.794495,-15.99121,6.645203,-12.908936
20,-0.122986,-0.356323,0.94812,-6.515503,3.265381,-30.250549
21,-0.12262,0.698669,0.845886,-6.43158,3.814697,-50.933838
22,0.08667,-0.235168,1.085083,10.910034,0.656128,-70.091248
23,0.187927,0.05957,0.965332,14.610291,1.594543,-72.402954
24,0.233276,-0.118408,1.022583,14.648438,1.89209,-69.725037
25,0.215454,-0.005371,0.937012,4.684448,0.900269,-39.459229
26,0.111145,-0.047668,0.972778,-2.243042,1.113892,-21.987915
27,0.078857,-0.083374,0.949402,-1.327515,0.961304,-7.995605
28,0.068726,-0.088867,0.965393,2.609253,-0.228882,-2.5177
29,0.07135,-0.085999,0.970825,4.196167,-1.441956,-0.892639
30,0.067322,-0.096252,0.959595,10.871887,-2.967834,1.502991
31,0.121155,-0.079956,0.92334,17.463684,-5.851746,7.141113
32,0.106018,-0.127991,0.959045,27.305603,-8.995056,13.305664
33,0.109009,-0.115295,0.894836,38.673401,-12.077332,17.791748
34,0.101196,-0.001404,0.970886,47.454834,-16.410828,16.716003
35,-0.039368,0.118958,1.131897,50.468445,-16.876221,12.275696
36,0.1474,-0.036377,0.985046,31.417847,-9.132385,8.956909
37,0.074524,-0.012939,0.958435,23.406982,-7.301331,11.695862
38,0.09021,-0.081909,0.998779,20.378113,-6.263733,11.756897
39,0.072083,-0.0802,0.970825,12.809753,-4.806519,5.859375
40,0.056824,-0.08844,0.977173,7.6828,-3.791809,1.777649
41,0.05658,-0.074158,0.988403,5.241394,-3.608704,0.259399
42,0.050293,-0.073425,0.99823,3.990173,-3.219604,-0.152588
43,0.055054,-0.067566,0.999207,3.036499,-2.082825,-0.602722
44,0.059509,-0.058655,0.982361,1.64032,-3.02124,-0.831604
45,0.074768,-0.052979,0.978516,0.862122,-4.40979,-0.801086
46,0.075684,-0.053772,0.980774,0.732422,-4.951477,-0.701904
47,0.073425,-0.055298,0.971802,0.854492,-5.271912,-0.602722
48,0.072449,-0.05542,0.971008,0.579834,-6.355286,-0.465393
49,0.073547,-0.053528,0.9823,0.450134,-7.606506,-0.236511
50,0.077332,-0.053467,0.985168,0.587463,-8.087158,-0.099182
51,0.088318,-0.060669,0.971313,0.518799,-8.880615,-0.106812
52,0.095825,-0.062439,0.970215,0.572205,-9.117126,-0.045776
53,0.102295,-0.063171,0.96344,0.732422,-8.68988,-0.160217
54,0.109436,-0.062317,0.958984,0.991821,-8.125305,-0.282288
55,0.13446,-0.050171,0.962769,0.991821,-7.469177,-0.297546
56,0.161438,-0.036682,0.974487,-0.366211,-1.739502,-0.053406
57,0.128906,-0.062378,0.940491,-0.411987,1.693726,0.144958
58,0.124207,-0.075195,0.939514,-0.389099,3.089905,0.335693
59,0.128479,-0.081238,0.95343,-0.1297,3.929138,0.442505
60,0.13324,-0.079163,0.958679,0.999451,5.958557,0.190735
61,0.131409,-0.075195,0.951782,3.387451,11.009216,-0.022888
62,0.109924,-0.080444,0.94165,4.722595,12.588501,0.12207
63,0.094788,-0.081726,0.95813,5.966187,13.244629,0.488281
64,0.086121,-0.075928,0.971069,7.324219,13.580322,0.511169
65,0.092896,-0.070251,0.967102,8.377075,13.877869,0.015259
66,0.100037,-0.065979,0.97406,8.750916,14.404297,-0.648499
67,0.098999,-0.069336,0.963928,9.086609,16.731262,-2.052307
68,0.096802,-0.062561,0.964172,8.926392,18.341064,-4.020691
69,0.076416,-0.0448,0.985718,8.499146,20.149231,-6.523132
70,0.048035,-0.024109,1.005798,8.117676,20.523071,-7.789612
71,0.032227,-0.014282,1.008606,7.095337,18.661499,-6.919861
72,0.020569,-0.010681,1.011658,5.66864,15.541077,-4.91333
73,0.01532,-0.01239,1.003845,2.098083,8.560181,-1.586914
74,0.030884,-0.032349,0.985901,0.328064,5.622864,-1.358032
75,0.037781,-0.04425,0.981201,-1.13678,3.814697,-2.464294
76,0.040466,-0.056091,0.981628,-1.976013,2.7771,-4.653931
77,0.038757,-0.067505,0.984497,-2.13623,2.197266,-7.286072
78,0.033569,-0.075439,0.978333,-0.770569,0.312805,-11.940002
79,0.030212,-0.077454,0.970154,0.389099,-1.289368,-13.221741
80,0.031616,-0.071289,0.968872,1.602173,-3.471375,-13.977051
81,0.037292,-0.065735,0.970581,2.708435,-5.569458,-14.320374
82,0.045349,-0.061829,0.978394,3.387451,-7.30896,-14.328003
83,0.054932,-0.05426,0.983032,3.700256,-8.666992,-14.259338
84,0.065857,-0.048889,0.975647,3.540039,-9.513855,-14.274597
85,0.086487,-0.04187,0.97644,2.235413,-9.147644,-15.029907
86,0.08783,-0.039063,0.975586,1.411438,-8.247375,-15.541077
87,0.085022,-0.037781,0.981323,0.640869,-7.614136,-15.388489
88,0.081299,-0.031067,0.982727,-0.053406,-7.537842,-14.190674
89,0.083069,-0.028687,0.980713,-0.534058,-8.247375,-11.59668
90,0.088989,-0.031677,0.978455,-1.289368,-10.704041,-4.959106
91,0.096802,-0.039185,0.980469,-1.243591,-11.291504,-2.227783
92,0.079956,-0.059692,0.977478,-0.900269,-11.528015,-0.518799
93,0.076477,-0.064331,0.9729,-0.25177,-11.962891,-0.946045
94,0.098755,-0.067444,0.96344,0.320435,-11.787415,-1.296997
95,0.104248,-0.065247,0.960327,0.991821,-11.09314,-1.251221
96,0.1026,-0.065247,0.962036,1.739502,-10.154724,-0.907898
97,0.098389,-0.061829,0.964417,2.418518,-9.33075,-0.671387
98,0.093018,-0.055664,0.969666,2.929688,-8.865356,-0.305176
99,0.090088,-0.04895,0.974731,3.196716,-8.842468,0.358582
100,0.086853,-0.03894,0.978821,2.952576,-9.796143,2.960205
101,0.090332,-0.027161,0.983154,2.5177,-10.490417,4.798889
102,0.098267,-0.027649,0.982117,1.968384,-10.948181,6.80542
103,0.10437,-0.026978,0.977722,1.335144,-11.268616,8.895874
104,0.110229,-0.028809,0.97876,0.686646,-11.230469,10.848999
105,0.114258,-0.030334,0.974304,-0.12207,-10.391235,14.312744
106,0.126282,-0.036255,0.966614,-0.427246,-9.70459,15.975952
107,0.128784,-0.042419,0.967163,-0.617981,-8.598328,17.303467
108,0.131409,-0.042786,0.963135,-0.740051,-7.202148,18.409729
109,0.134399,-0.045227,0.959351,-1.075745,-5.53894,19.393921
110,0.138428,-0.055725,0.957214,-1.358032,-1.464844,19.676208
111,0.143982,-0.075562,0.952332,-1.289368,1.365662,18.52417
112,0.134949,-0.08313,0.9505,-1.266479,4.493713,16.723633
113,0.122437,-0.080627,0.951233,-1.052856,7.316589,14.923096
114,0.108215,-0.076538,0.95636,-0.747681,9.208679,13.572693
115,0.092285,-0.073181,0.964783,-0.137329,10.2005,12.924194
116,0.078064,-0.067505,0.973145,0.671387,10.070801,13.122559
117,0.064575,-0.059082,0.982788,2.761841,6.43158,16.578674
118,0.053284,-0.059387,0.985779,3.65448,3.143311,19.592285
119,0.059875,-0.074524,0.978027,4.66156,0.160217,21.949768
120,0.057495,-0.074585,0.972534,5.973816,-1.876831,23.101807
121,0.055847,-0.064453,0.972778,7.164001,-3.829956,24.085999
122,0.083008,-0.069946,0.976318,8.68988,-7.995605,26.535034
123,0.098938,-0.073792,0.973328,9.109497,-8.094788,25.901794
124,0.109985,-0.078064,0.965454,9.124756,-6.813049,23.429871
125,0.118591,-0.079346,0.958618,8.560181,-4.562378,19.752502
126,0.1203,-0.076782,0.95929,5.996704,1.63269,10.07843
127,0.095215,-0.0495,0.975098,4.325867,4.119873,5.821228
128,0.080017,-0.035034,0.990845,2.5177,5.111694,3.219604
129,0.068237,-0.031433,1.001221,0.930786,4.768372,2.494812
130,0.062378,-0.035645,0.999939,-0.442505,3.288269,2.76947
131,0.068481,-0.053894,0.990784,-1.312256,1.51825,3.372192
132,0.075256,-0.074036,0.971863,-1.197815,0.091553,1.541138
133,0.082397,-0.088257,0.963074,-0.297546,0.366211,-0.282288
134,0.108948,-0.087891,0.948914,1.052856,0.610352,-0.785828
135,0.110352,-0.090576,0.948547,2.76947,1.167297,-0.656128
136,0.107666,-0.069946,0.957642,7.217407,4.40979,-0.518799
137,0.107422,-0.062134,0.963318,7.93457,5.531311,-0.541687
138,0.105164,-0.053162,0.968506,8.216858,6.576538,-0.480652
139,0.107666,-0.050293,0.968201,7.568359,8.605957,-0.831604
140,0.109314,-0.050537,0.972778,7.156372,10.131836,-1.243591
141,0.11261,-0.061707,0.96698,6.736755,12.023926,-2.342224
142,0.106079,-0.063599,0.966675,6.55365,14.259338,-4.173279
143,0.094666,-0.063049,0.966614,6.408691,16.235352,-6.088257
144,0.08313,-0.061584,0.970581,6.393433,17.669678,-7.972717
145,0.070618,-0.061584,0.978333,6.591797,18.348694,-11.33728
146,0.028625,-0.039734,0.984131,6.645203,17.570496,-12.329102
147,0.023804,-0.034058,0.995361,6.706238,15.281677,-11.535645
148,0.031982,-0.043213,0.98822,6.370544,11.581421,-10.101318
149,0.043823,-0.048767,0.975952,5.775452,9.292603,-10.406494
150,0.041809,-0.042419,0.977417,4.241943,7.385254,-15.197754
151,0.031006,-0.025024,0.999634,2.876282,5.531311,-16.418457
152,0.030518,-0.020508,1.00061,1.167297,3.890991,-17.547607
153,0.024414,-0.019958,0.998718,-0.686646,1.976013,-18.4021
154,0.024292,-0.023987,0.996216,-3.822327,-2.960205,-18.173218
155,0.029663,-0.030457,0.990601,-4.959106,-5.073547,-17.990112
156,0.035645,-0.048096,0.98468,-5.737305,-6.988525,-17.738342
157,0.041748,-0.053345,0.984192,-5.79834,-9.07135,-16.716003
158,0.046143,-0.058533,0.979919,-5.249023,-11.390686,-14.793396
159,0.052429,-0.06012,0.975586,-4.478455,-13.832092,-12.176514
160,0.060242,-0.060364,0.975586,-3.349304,-16.456604,-8.636475
161,0.061096,-0.078491,0.968567,-0.488281,-21.270752,-1.64032
162,0.057007,-0.08252,0.972961,0.946045,-22.636414,-0.862122
163,0.069519,-0.08313,0.969116,2.639771,-24.139404,-0.732422
164,0.08783,-0.079224,0.970215,4.03595,-25.009155,-1.174927
165,0.102173,-0.07196,0.965759,5.203247,-24.879456,-1.617432
166,0.118408,-0.066895,0.962646,5.973816,-23.979187,-1.701355
167,0.127991,-0.062195,0.961243,7.255554,-20.545959,-1.76239
168,0.138733,-0.05603,0.957703,7.698059,-18.341064,-1.342773
169,0.143005,-0.057068,0.956482,8.18634,-16.044617,-0.785828
170,0.142029,-0.056152,0.9552,8.773804,-13.656616,0.091553
171,0.139954,-0.054688,0.950317,10.231018,-9.353638,2.403259
172,0.139282,-0.050903,0.953918,10.955811,-7.56073,4.173279
173,0.13208,-0.044373,0.95697,11.764526,-6.240845,6.660461
174,0.131042,-0.04187,0.960876,12.535095,-5.096436,9.475708
175,0.1297,-0.039001,0.961304,13.328552,-4.02832,12.496948
176,0.129517,-0.039551,0.965271,13.931274,-2.845764,15.510559
177,0.132629,-0.0448,0.961487,14.732361,-1.747131,18.257141
178,0.135803,-0.05304,0.95282,16.098022,1.609802,21.392822
179,0.13446,-0.055542,0.953125,16.807556,3.562927,21.965027
180,0.134033,-0.060303,0.954285,17.532349,5.584717,22.140503
181,0.133606,-0.060852,0.952393,18.890381,9.841919,20.462036
182,0.118347,-0.046082,0.963745,19.104004,11.84082,19.042969
183,0.112366,-0.035583,0.971558,19.004822,13.183594,17.753601
184,0.095764,-0.020325,0.980652,18.52417,14.198303,16.662598
185,0.073303,0.003662,0.992493,17.555237,14.434814,16.601563
186,0.052185,0.028137,1.00293,15.686035,12.9776,18.302917
187,0.026001,0.054565,1.021912,10.665894,6.622314,27.000427
188,0.02948,0.048462,1.020447,7.850647,2.433777,32.951355
189,0.039246,0.038452,1.010681,5.050659,-1.51062,38.551331
190,0.05127,0.02771,1.00238,2.723694,-4.867554,43.075562
191,0.061401,0.020996,0.993042,0.640869,-7.461548,46.562195
192,0.073364,0.013123,0.988403,-1.12915,-9.58252,49.27063
193,0.086426,0.0047,0.9823,-3.143311,-11.46698,52.017212
194,0.099426,-0.00354,0.979126,-3.890991,-11.543274,52.833557
195,0.0979,-0.003113,0.978027,-4.753113,-11.405945,53.642273
196,0.101257,-0.005554,0.974548,-5.645752,-11.161804,55.099487
197,0.104797,-0.010498,0.974121,-6.469727,-11.054993,56.663513
198,0.113403,-0.013794,0.97406,-7.225037,-10.879517,58.265686
199,0.119019,-0.018066,0.973572,-8.598328,-8.956909,60.310364
200,0.16449,-0.06073,0.950806,-9.117126,-6.439209,59.516907
201,0.163147,-0.07135,0.957153,-9.162903,-2.578735,56.129456
202,0.139526,-0.075623,0.956238,-8.125305,0.984192,52.711487
203,0.147766,-0.094421,0.930664,-5.943298,3.40271,50.476074
204,0.110413,-0.087341,0.946716,-4.119873,6.141663,47.462463
205,0.091003,-0.085388,0.945251,0.061035,6.500244,46.005249
206,0.085571,-0.087952,0.987305,2.738953,6.103516,45.272827
207,0.095093,-0.099731,0.984558,6.80542,5.760193,44.189453
208,0.08197,-0.09613,0.9823,11.550903,6.210327,42.358398
209,0.050476,-0.076416,0.947937,17.242432,7.392883,41.572571
210,0.026489,-0.054016,0.908936,23.918152,6.195068,42.907715
211,0.027954,-0.040283,0.928162,47.88208,2.166748,46.363831
212,0.050781,-0.053711,0.882507,60.142517,4.219055,45.898438
213,0.055969,-0.046143,0.926331,67.634583,4.089355,44.85321
214,0.068176,-0.035767,1.010803,73.501587,3.692627,43.617249
215,0.065796,-0.010193,1.031738,78.994751,5.699158,42.198181
216,0.056946,0.008301,1.001221,84.594727,7.530212,40.039063
217,0.056824,0.06073,0.963684,84.854126,6.698608,39.207458
218,0.065369,0.086548,0.973022,85.296631,6.622314,37.132263
219,0.064453,0.100098,0.951233,86.257935,8.468628,34.111023
220,0.067993,0.106934,0.947876,85.380554,9.613037,30.822754
221,0.086182,0.116394,0.985779,76.393127,13.046265,22.064209
222,0.087769,0.139648,0.986816,69.046021,16.540527,16.654968
223,0.087158,0.141052,0.98468,59.326172,18.630981,11.497498
224,0.093018,0.144287,1.003662,48.408508,19.920349,6.629944
225,-0.001038,0.248474,1.061279,37.80365,20.683289,2.624512
226,0.032166,0.214478,1.018738,31.211853,15.190125,4.40979
227,0.056824,0.161804,0.979431,27.626038,13.031006,4.119873
228,0.046997,0.146179,0.930603,20.179749,12.47406,-0.617981
229,0.022644,0.123657,0.996521,15.289307,8.178711,-0.175476
230,0.02301,0.100586,1.035461,12.290955,4.577637,1.00708
231,0.017151,0.076172,1.023682,10.108948,1.800537,2.784729
232,0.026306,0.052856,1.007874,6.599426,-2.26593,5.04303
233,0.038269,0.039001,1.012573,0.747681,-7.781982,6.92749
234,0.052246,-0.002502,0.978027,-2.227783,-9.178162,6.912231
235,0.067627,-0.02124,0.984253,-7.728577,-11.260986,6.767273
236,0.08783,-0.030823,1.008423,-14.5111,-12.702942,5.79834
237,0.087524,-0.027283,1.027649,-20.80535,-12.985229,3.860474
238,0.104919,-0.046875,0.989319,-28.66363,-14.587402,0.259399
239,0.111023,-0.063782,0.95636,-30.07507,-13.328552,-3.479004
240,0.100891,-0.075562,0.946411,-29.89959,-11.795044,-8.071899
241,0.09491,-0.086609,0.950623,-28.95355,-11.192322,-11.825562
242,0.084351,-0.087463,0.970947,-27.70996,-12.390137,-16.159058
243,0.067139,-0.031921,0.972778,-26.03912,-13.259888,-16.906738
244,0.069275,-0.017334,0.979492,-22.65167,-14.099121,-16.960144
245,0.08197,-0.006042,0.978882,-19.76013,-14.602661,-16.822815
246,0.102905,-0.009583,0.985535,-17.20428,-14.404297,-17.456055
247,0.116394,-0.010376,0.981628,-12.8479,-10.58197,-21.54541
248,0.104431,-0.00824,0.958557,-11.13891,-8.857727,-23.841858
249,0.096436,-0.010132,0.959534,-9.262085,-7.804871,-25.588989
250,0.090881,-0.01416,0.965576,-7.095337,-7.141113,-26.756287
251,0.086914,-0.014954,0.965454,-4.646301,-6.690979,-27.374268
252,0.087341,-0.014282,0.963257,-2.182007,-6.462097,-27.702332
253,0.09137,-0.008606,0.96167,-0.007629,-6.446838,-27.931213
254,0.099792,0.015381,0.960815,3.082275,-5.79071,-28.709412
255,0.104797,0.030823,0.963257,3.669739,-5.172729,-29.121399
256,0.10022,0.050476,0.96991,3.28064,-4.295349,-29.373169
257,0.068054,0.07843,0.995605,2.204895,-3.936768,-28.7323
258,0.055298,0.094482,0.997314,0.320435,-5.607605,-25.32959
259,0.139893,0.074341,0.967529,-5.004883,-5.134583,-23.513794
260,0.12439,0.05304,1.000183,-6.332397,-0.022888,-27.282715
261,0.106628,0.059937,0.936829,-7.476807,3.15094,-28.411865
262,0.114563,0.056702,0.923279,-10.11657,3.593445,-28.640747
263,0.10968,0.052185,0.970337,-12.39776,4.096985,-29.067993
264,0.101318,0.055664,0.981201,-15.31219,6.584167,-27.984619
265,0.096008,0.070007,0.975525,-17.64679,6.744385,-26.679993
266,0.093262,0.077881,0.98291,-20.14923,7.049561,-24.917603
267,0.095459,0.079834,0.984253,-23.01025,7.293701,-23.010254
268,0.096497,0.075317,0.991272,-26.03912,7.102966,-20.881653
269,0.098083,0.071533,0.995728,-28.95355,7.286072,-18.768311
270,0.100525,0.067017,0.990295,-34.10339,8.171082,-15.609741
271,0.109924,0.016907,0.977112,-41.96167,8.285522,-10.742188
272,0.15387,-0.077515,0.942017,-43.01452,10.2005,-11.802673
273,0.093323,-0.111084,0.971191,-40.9317,14.198303,-15.663147
274,0.08667,-0.162476,0.926514,-35.34698,16.136169,-17.730713
275,0.067444,-0.169495,0.932251,-28.27453,16.494751,-19.088745
276,0.064697,-0.164185,0.93927,-19.7525,15.808105,-19.691467
277,0.063293,-0.139038,0.939697,-3.242493,13.748169,-19.706726
278,0.067444,-0.102173,0.968872,2.723694,12.611389,-20.6604
279,0.040955,-0.074097,1.009216,5.592346,12.336731,-23.666382
280,0.049866,-0.054016,0.988586,5.851746,12.611389,-26.725769
281,0.025635,-0.040283,0.962463,5.836487,12.634277,-29.144287
282,0.016663,-0.051208,0.946655,6.889343,7.881165,-32.218933
283,0.001709,-0.042847,0.989197,7.400513,5.065918,-33.241272
284,-0.007263,-0.081421,0.991272,8.178711,1.670837,-34.011841
285,-0.005798,-0.029907,0.980286,9.994507,-1.556396,-34.233093
286,0.024109,0.007996,1.043518,11.543274,-7.041931,-35.27832
287,0.024475,-0.018066,1.05957,10.734558,-9.58252,-36.270142
288,0.016541,-0.018433,0.959229,9.857178,-13.023376,-36.941528
289,0.032532,-0.010742,0.983276,9.742737,-16.891479,-36.529541
290,0.04248,0.010559,0.991272,10.574341,-18.783569,-35.987854
291,0.055847,0.024475,1.002197,10.154724,-20.797729,-35.110474
292,0.075256,0.037476,0.996704,8.964539,-22.026062,-34.057617
293,0.082092,0.037598,0.979248,7.133484,-21.972656,-33.157349
294,0.083557,0.017395,0.960205,3.753662,-21.499634,-31.669617
295,0.107422,0.054871,1.005859,1.747131,-21.331787,-30.838013
296,0.118347,0.065491,1.010193,-3.601074,-18.096924,-28.587341
297,0.131226,0.065491,0.98114,-6.988525,-16.593933,-27.359009
298,0.131592,0.052063,0.966248,-10.26916,-14.312744,-26.100159
299,0.123718,0.030457,0.949951,-12.62664,-11.772156,-24.833679
300,0.116577,0.008972,0.945007,-14.35089,-10.162354,-23.216248
301,0.115112,0.002686,0.966187,-14.73236,-9.338379,-21.408081
302,0.108826,-0.007385,0.992981,-14.22882,-8.964539,-19.523621
303,0.108093,-0.021057,0.992249,-12.72583,-8.758545,-16.845703
304,0.12677,-0.012024,0.954468,-9.681702,-7.30896,-12.443542
305,0.129883,-0.017151,0.961365,-8.834839,-6.530762,-10.742188
306,0.132629,-0.009705,0.967407,-7.720947,-5.393982,-8.68988
307,0.122864,-0.005188,0.969299,-6.889343,-4.074097,-6.385803
308,0.131592,-0.015686,0.954956,-5.119324,-2.502441,-1.930237
309,0.132141,0.003479,0.950562,-5.813599,-1.068115,-0.450134
310,0.112,0.031189,0.985474,-7.461548,0.007629,0.450134
311,0.104431,0.020325,0.993896,-9.918213,0.740051,1.251221
312,0.072998,-0.012939,0.989197,-12.04681,1.075745,1.312256
313,0.062866,-0.014893,0.97467,-13.84735,-2.235413,0.88501
314,0.052185,0.00824,0.993347,-15.419,-5.256653,1.045227
315,0.079529,0.025574,1.027527,-17.99774,-6.668091,0.968933
316,0.091064,0.012756,0.997253,-20.85876,-7.247925,0.602722
317,0.100464,0.001099,0.98761,-23.7503,-8.155823,0.076294
318,0.12085,-0.007996,0.97821,-25.8789,-8.018494,-0.228882
319,0.129028,-0.039978,0.967102,-27.61077,-6.614685,-0.854492
320,0.137817,-0.064514,0.959167,-28.05328,-4.981995,-1.579285
321,0.141235,-0.098328,0.938538,-25.42877,0.099182,-3.616333
322,0.135742,-0.114258,0.95752,-23.22387,2.532959,-4.867554
323,0.130188,-0.129822,0.946716,-19.3634,5.203247,-5.836487
324,0.114929,-0.132446,0.917236,-14.70184,8.041382,-6.912231
325,0.115295,-0.144836,0.894409,-5.607605,11.230469,-10.07843
326,0.108704,-0.131287,0.890869,-1.068115,14.129639,-12.840271
327,0.101379,-0.113892,0.924316,1.907349,16.044617,-15.464783
328,0.098572,-0.092712,0.97406,4.264832,16.708374,-17.379761
329,0.084106,-0.057617,0.99176,7.019043,17.25769,-18.424988
330,0.076721,-0.047668,0.992004,7.453918,15.975952,-18.119812
331,0.071716,-0.041138,0.997192,7.591248,14.518738,-17.677307
332,0.074402,-0.048462,0.990845,8.071899,13.305664,-17.272949
333,0.067627,-0.047058,0.964661,8.010864,12.901306,-17.402649
334,0.069519,-0.042053,0.971313,7.659912,11.741638,-18.081665
335,0.073608,-0.037109,0.989685,6.93512,11.169434,-19.332886
336,0.075378,-0.030579,0.983093,4.364014,12.47406,-23.651123
337,0.076355,-0.021057,0.980408,1.968384,12.863159,-26.100159
338,0.071533,-0.007996,1.003967,-0.404358,13.694763,-28.686523
339,0.059082,-0.004211,1.001831,-2.593994,14.343262,-31.196594
340,0.050537,-0.005615,0.993164,-4.692078,13.98468,-33.164978
341,0.044312,-0.011719,0.993347,-6.530762,12.924194,-34.828186
342,0.038452,-0.019165,0.996826,-8.529663,10.665894,-37.879944
343,0.03186,-0.02887,0.989319,-8.842468,9.307861,-39.337158
344,0.033142,-0.049438,0.974243,-8.834839,7.774353,-40.557861
345,0.036804,-0.057861,0.971069,-8.537292,6.210327,-41.854858
346,0.038208,-0.063232,0.969299,-8.087158,4.692078,-42.96875
347,0.044067,-0.063782,0.975952,-7.301331,2.952576,-43.571472
348,0.057739,-0.065613,0.974243,-5.981445,0.526428,-43.960571
349,0.073364,-0.067322,0.967041,-5.821228,0.091553,-43.922424
350,0.077271,-0.070251,0.96637,-5.79071,-0.038147,-43.891907
351,0.080811,-0.069763,0.963806,-5.638123,0.259399,-43.571472
352,0.081787,-0.074646,0.961914,-5.378723,0.518799,-43.235779
353,0.089966,-0.071472,0.963806,-5.332947,0.816345,-42.747498
354,0.098389,-0.077759,0.963745,-5.065918,1.441956,-42.304993
355,0.105896,-0.120667,0.940613,-2.624512,5.813599,-44.029236
356,0.094299,-0.078857,0.964844,-0.663757,7.598877,-45.204163
357,0.091797,-0.055603,0.99762,1.731873,7.156372,-42.694092
358,0.108093,-0.063599,0.937866,2.761841,8.239746,-41.923523
359,0.100342,-0.043091,0.952026,2.830505,9.773254,-42.167664
360,0.09198,-0.051514,0.976318,2.510071,10.398865,-41.557312
361,0.092896,-0.069702,0.986389,3.479004,10.688782,-40.924072
362,0.08728,-0.072998,0.981201,5.661011,11.573792,-40.94696
363,0.072144,-0.017151,0.948792,5.378723,11.657715,-40.847778
364,0.083313,-0.001099,0.997681,2.502441,9.95636,-40.390015
365,0.080627,-0.000977,1.024719,-0.495911,10.559082,-40.397644
366,0.019348,-0.104126,0.97644,6.797791,-8.087158,-89.042664
367,0.039307,-0.060364,1.009949,-19.60754,15.426636,-32.684326
368,0.042297,-0.070496,1.001465,-20.37048,14.450073,-31.242371
369,0.038086,-0.063538,0.991943,-22.17865,12.535095,-30.776978
370,0.043457,-0.0625,1.003235,-23.08654,11.314392,-30.410767
371,0.041016,-0.06366,0.988281,-24.44458,11.627197,-30.220032
372,0.0448,-0.045105,0.987122,-28.51867,9.506226,-29.35791
373,0.042847,-0.060608,1.011169,-30.28106,9.132385,-28.488159
374,0.039978,-0.07196,1.003845,-32.08923,8.491516,-27.740479
375,0.040161,-0.069824,0.99646,-33.90502,7.293701,-26.893616
376,0.040283,-0.092773,0.996948,-34.98077,5.92804,-26.100159
377,0.047119,-0.099548,0.985229,-35.5072,5.249023,-25.413513
378,0.033081,-0.144287,0.953247,-35.33172,5.249023,-24.925232
379,0.023987,-0.129944,0.93866,-30.76934,1.449585,-25.177002
380,0.036865,-0.126587,0.937683,-28.81622,-0.015259,-25.634766
381,0.056335,-0.135315,0.929993,-25.71868,-1.457214,-26.046753
382,0.066895,-0.149414,0.944519,-21.87347,-2.174377,-26.947021
383,0.08905,-0.157104,0.950745,-18.34869,-0.854492,-27.671814
384,0.069702,-0.137146,0.96759,-16.38793,2.906799,-26.817322
385,0.09314,-0.132263,0.931946,-16.82281,5.607605,-25.924683
386,0.072083,-0.147644,0.965332,-18.96667,14.328003,-23.262024
387,0.047424,-0.133423,0.93866,-24.96337,18.15033,-25.291443
388,0.048096,-0.151794,0.981018,-30.36499,20.439148,-29.289246
389,0.053162,-0.153442,0.994324,-33.18023,25.268555,-34.080505
390,0.033997,-0.161926,0.940369,-32.44018,30.952454,-42.953491
391,0.016724,-0.178162,0.978149,-31.10504,31.532288,-47.637939
392,0.000488,-0.174683,0.963928,-28.656,34.080505,-53.81012
393,-0.076904,-0.162048,1.000671,-27.18353,33.973694,-59.967041
394,-0.182434,-0.179565,1.060791,-28.6026,26.96228,-63.484192
395,-0.207581,-0.211182,1.034485,-31.08978,7.652283,-62.62207
396,-0.170593,-0.184875,0.916687,-36.25488,-38.238525,-50.163269
397,-0.279419,-0.077209,0.952759,-32.79113,-43.411255,-50.071716
398,-0.049866,-0.199951,1.018188,-29.83093,-40.161133,-57.945251
399,0.046997,-0.222839,0.965332,-15.69366,-28.060913,-74.279785
400,0.054199,-0.266602,0.980408,-14.33563,-20.187378,-80.215454
401,0.099182,-0.291565,0.77478,-15.18249,-13.122559,-83.610535
402,0.123169,-0.265076,0.707886,-11.20758,-6.530762,-85.174561
403,0.062378,-0.2677,0.723999,-5.767822,-7.797241,-88.760376
404,0.393005,-0.195496,0.966919,14.091492,-21.316528,-70.121765
405,0.429688,-0.164612,0.941528,25.299072,-12.519836,-52.947998
406,0.376221,-0.16803,0.964966,34.843445,-3.410339,-18.180847
407,0.230652,-0.177429,0.98053,33.790588,-0.679016,-6.744385
408,0.097229,-0.164246,0.939758,37.788391,-2.14386,0.610352
409,0.083801,-0.158203,0.979858,41.519165,-4.920959,4.15802
410,0.063354,-0.147766,0.992615,39.802551,-4.577637,5.088806
411,0.037659,-0.137451,0.97406,38.032532,-4.188538,4.768372
412,0.033936,-0.130127,0.970642,38.780212,-6.591797,4.02832
413,0.048096,-0.119446,0.966431,34.729004,-9.536743,2.258301
414,0.061157,-0.119812,0.968384,33.714294,-10.978699,1.541138
415,0.082581,-0.118774,0.979736,33.081055,-11.833191,0.869751
416,0.097961,-0.116211,0.97644,31.478882,-10.910034,0.358582
417,0.100952,-0.108215,0.973755,30.387878,-10.07843,0.312805
418,0.093506,-0.093506,0.980347,29.724121,-9.719849,0.686646
419,0.069214,-0.091492,0.996155,28.22113,-9.45282,0.862122
420,0.045349,-0.091553,0.993042,23.681641,-11.398315,-0.419617
421,0.03009,-0.09259,0.996399,21.339417,-13.679504,-1.838684
422,0.036926,-0.100464,0.990845,18.630981,-15.388489,-3.799438
423,0.05304,-0.103149,0.962708,16.906738,-16.563416,-5.775452
424,0.063721,-0.106323,0.958496,15.022278,-18.592834,-8.392334
425,0.065002,-0.127686,0.955566,14.007568,-18.608093,-9.872437
426,0.054321,-0.137207,0.970886,14.205933,-19.165039,-11.955261
427,0.061401,-0.145935,0.9823,14.274597,-20.027161,-14.328003
428,0.075012,-0.135132,0.98468,13.900757,-20.530701,-16.914368
429,0.125916,-0.100525,0.991333,14.457703,-20.622253,-20.309448
430,0.140564,-0.092224,0.973816,13.977051,-19.241333,-20.385742
431,0.126953,-0.101929,0.957275,13.122559,-17.585754,-19.927979
432,0.118103,-0.104309,0.945129,12.969971,-17.26532,-19.325256
433,0.123291,-0.103516,0.954102,13.053894,-17.066956,-17.814636
434,0.144287,-0.10376,0.964417,13.366699,-16.174316,-16.464233
435,0.135132,-0.088318,0.978882,14.053345,-15.365601,-14.938354
436,0.143372,-0.092346,0.958008,14.900208,-14.86969,-13.046265
437,0.146545,-0.088989,0.946167,15.960693,-14.808655,-10.444641
438,0.156921,-0.084534,0.951111,18.318176,-14.36615,-5.126953
439,0.120178,-0.083191,0.972717,18.096924,-13.244629,-4.40979
440,0.103943,-0.076416,0.966553,16.571045,-12.458801,-5.172729
441,0.102783,-0.070435,0.9823,14.839172,-13.343811,-6.599426
442,0.11322,-0.071716,0.997009,12.237549,-14.022827,-8.331299
443,0.127625,-0.069092,0.996704,9.239197,-12.939453,-10.536194
444,0.120178,-0.069275,0.981262,7.217407,-11.100769,-12.809753
445,0.116516,-0.073425,0.976074,4.966736,-10.772705,-15.327454
446,0.132568,-0.064758,0.992859,-0.869751,-10.673523,-19.096375
447,0.160156,-0.07373,1.00708,-3.318787,-9.597778,-20.729065
448,0.147766,-0.071533,0.96521,-5.226135,-5.767822,-22.293091
449,0.145325,-0.066162,0.940063,-6.027222,-4.432678,-23.551941
450,0.147339,-0.073364,0.963745,-11.26861,-1.373291,-25.993347
451,0.147217,-0.069641,0.979675,-12.05444,0.396729,-27.038574
452,0.149353,-0.06842,0.961975,-12.5122,1.426697,-27.351379
453,0.151367,-0.070862,0.955017,-14.34326,2.723694,-27.191162
454,0.147156,-0.083557,0.965149,-15.07568,3.761292,-25.520325
455,0.152222,-0.087158,0.957458,-14.9002,4.127502,-24.147034
456,0.178894,-0.103943,0.927551,-14.29748,4.40979,-22.010803
457,0.213318,-0.074585,0.940063,-12.06207,4.356384,-17.921448
458,0.175415,-0.076416,0.978577,-9.643555,5.104065,-13.374329
459,0.1026,-0.103516,0.967896,-10.45227,6.652832,-11.650085
460,0.103149,-0.117981,0.921875,-9.170532,4.676819,-11.650085
461,0.184387,-0.113586,0.960327,-8.300781,5.157471,-10.108948
462,0.164307,-0.130432,0.945557,-7.301331,7.606506,-7.987976
463,0.160706,-0.142273,0.913818,-4.257202,8.605957,-5.935669
464,0.175537,-0.139038,0.915283,-0.62561,8.216858,-3.349304
465,0.162476,-0.141907,0.940979,4.875183,9.605408,1.777649
466,0.099854,-0.154541,0.942139,8.43811,9.33075,1.831055
467,0.115479,-0.141602,0.942322,10.566711,8.69751,0.63324
468,0.12439,-0.125,0.951416,11.283875,9.109497,-0.595093
469,0.11145,-0.110229,0.964844,12.22229,9.58252,-1.289368
470,0.090149,-0.106995,0.982971,12.611389,9.262085,-2.220154
471,0.083618,-0.100342,0.985046,10.726929,7.743835,-5.371094
472,0.109253,-0.090393,0.969482,10.154724,7.339478,-6.919861
473,0.102722,-0.095825,0.967285,9.300232,7.156372,-8.163452
474,0.090637,-0.097656,0.972778,7.843018,6.950378,-9.70459
475,0.095825,-0.101013,0.981506,6.767273,6.515503,-11.489868
476,0.106995,-0.098816,0.975037,6.469727,6.29425,-13.09967
477,0.115112,-0.096191,0.970764,6.332397,6.233215,-14.053345
478,0.110291,-0.096863,0.96814,5.905151,6.118774,-14.663696
479,0.109802,-0.095276,0.969238,5.599976,5.767822,-15.029907
480,0.117798,-0.092407,0.967041,5.805969,4.966736,-14.915466
481,0.117493,-0.092285,0.965271,6.111145,4.615784,-14.228821
482,0.113098,-0.097168,0.966187,6.462097,3.814697,-13.374329
483,0.11084,-0.097839,0.968689,6.889343,3.128052,-12.481689
484,0.116577,-0.095032,0.967651,8.392334,1.213074,-10.719299
485,0.117126,-0.091797,0.965759,8.903503,0.62561,-9.635925
486,0.115479,-0.090027,0.965515,9.407043,-0.091553,-8.621216
487,0.116943,-0.089539,0.966492,9.849548,-0.701904,-7.644653
488,0.114075,-0.095459,0.962219,10.71167,-2.281189,-5.851746
489,0.123413,-0.09845,0.958008,11.558533,-3.120422,-4.798889
490,0.133728,-0.100037,0.957336,12.893677,-3.65448,-3.623962
491,0.135437,-0.101563,0.955383,14.541626,-3.540039,-2.334595
492,0.129578,-0.100037,0.951782,16.090393,-3.128052,-1.541138
493,0.123108,-0.090881,0.949707,17.13562,-2.433777,-1.419067
494,0.121033,-0.066345,0.968689,16.731262,-1.869202,-1.914978
495,0.147522,-0.035767,0.983521,15.190125,-1.045227,-1.457214
496,0.134827,-0.023987,0.973755,13.244629,0.25177,-1.037598
497,0.134766,-0.012573,0.969543,10.269165,1.00708,-1.419067
498,0.135864,-0.027283,0.991516,5.958557,1.930237,-1.205444
499,0.110352,-0.035828,1.022827,1.411438,1.922607,-0.572205
500,0.136108,-0.042542,0.973999,-0.358582,2.029419,-0.045776
501,0.118835,-0.061646,0.944275,-2.700806,2.311707,1.396179
502,0.082031,-0.089233,0.95874,-3.334045,1.296997,2.845764
503,0.070557,-0.111938,0.994873,-2.571106,-1.00708,2.456665
504,0.084412,-0.11084,0.989502,-1.785278,-1.930237,0.434875
505,0.107727,-0.10321,0.956787,-0.572205,-2.39563,-3.997803
506,0.101501,-0.107605,0.947327,-0.686646,-2.532959,-5.462646
507,0.098145,-0.114502,0.961426,-0.808716,-2.708435,-7.362366
508,0.13562,-0.096802,0.969727,0.267029,-2.586365,-9.475708
509,0.160522,-0.089111,0.949951,2.082825,-0.88501,-11.039734
510,0.120789,-0.099243,0.93396,2.891541,1.991272,-12.184143
511,0.081421,-0.136597,0.953247,2.296448,1.373291,-16.906738
512,0.134827,-0.074463,0.978699,5.363464,2.02179,-18.699646
513,0.112305,-0.081543,0.950928,8.956909,2.807617,-19.256592
514,0.079773,-0.062317,0.972839,13.816833,-3.486633,-19.91272
515,0.113586,-0.064575,1.011536,16.235352,-6.881714,-19.012451
516,0.060608,-0.048401,1.043213,21.408081,-10.765076,-17.456055
517,0.054382,-0.044067,1.04071,32.203674,-16.464233,-16.265869
518,0.073669,0.004333,0.99231,35.232544,-21.16394,-15.815735
519,0.13623,0.017456,0.984192,23.498535,-21.018982,-15.853882
520,0.109802,0.008972,1.017822,-20.87402,-11.260986,-15.052795
521,0.069641,-0.036804,1.019226,-29.07562,-9.719849,-14.045715
522,0.16095,-0.048218,0.965942,-24.1394,-14.625549,-13.320923
523,0.182312,-0.064087,0.931274,-11.50512,-18.943787,-11.650085
524,0.124573,-0.036255,0.983032,-0.793457,-22.689819,-9.780884
525,0.220215,-0.016113,0.961304,-14.19067,-16.487122,-4.768372
526,0.181824,-0.072693,0.942871,-24.81842,-16.00647,-3.486633
527,0.310974,-0.148621,0.843994,-20.41626,-15.113831,-3.570557
528,0.110657,-0.104248,0.942871,-7.751465,-14.083862,-2.952576
529,0.015076,-0.113403,0.992126,-1.724243,-13.587952,-3.135681
530,0.21875,-0.142639,0.904846,-1.945496,-17.227173,-4.508972
531,0.194458,-0.117615,0.97052,5.126953,-18.814087,-3.479004
532,0.114441,-0.141846,1.001892,5.577087,-17.608643,-3.623962
533,0.144714,-0.154785,0.934021,3.822327,-13.252258,-5.53894
534,0.075134,-0.137024,0.929138,5.340576,-11.024475,-8.651733
535,0.172668,-0.147095,0.897339,4.78363,-12.283325,-11.268616
536,0.121094,-0.155457,0.968201,7.629395,-13.427734,-14.213562
537,0.060791,-0.115295,0.967224,10.887146,-14.053345,-18.119812
538,0.112488,-0.118774,0.890686,10.322571,-15.197754,-22.04895
539,0.157288,-0.048157,1.011353,16.029358,-21.697998,-26.847839
540,0.256104,-0.012817,0.982239,12.59613,-19.210815,-24.383545
541,0.119141,-0.011536,0.965637,12.916565,-14.259338,-21.072388
542,0.179565,0.000977,0.86908,3.982544,-13.725281,-12.191772
543,0.196045,-0.076599,0.923584,9.902954,-18.722534,-8.285522
544,0.22644,-0.135071,0.910461,18.531799,-21.430969,-5.393982
545,0.089478,-0.064697,0.889404,27.839661,-26.184082,-4.470825
546,0.221985,-0.024109,0.987732,32.806396,-25.466919,-1.335144
547,0.158936,-0.021057,0.96283,43.624878,-26.908875,0.411987
548,0.18573,-0.049072,1.028809,53.245544,-32.424927,5.371094
549,0.223511,0.033142,0.920837,49.049377,-33.126831,6.729126
550,0.250244,-0.046387,1.001953,43.899536,-29.373169,9.58252
551,0.176208,0.032898,0.945618,33.821106,-29.769897,9.498596
552,0.218567,0.011597,1.050415,23.902893,-26.138306,10.894775
553,0.214478,0.029968,0.980286,17.486572,-26.657104,11.611938
554,0.224304,-0.008789,0.925903,9.849548,-23.986816,13.259888
555,0.200623,-0.066589,0.934204,3.295898,-22.171021,14.190674
556,0.164551,-0.039856,0.987122,4.707336,-23.155212,14.038086
557,0.177185,-0.018005,1.01001,3.837585,-25.192261,13.664246
558,0.292603,0.014465,0.994202,5.912781,-26.199341,14.434814
559,0.224426,-0.034363,0.917114,9.811401,-27.023315,15.4953
560,0.209229,-0.059692,0.857117,6.645203,-25.985718,15.838623
561,0.261047,-0.133667,0.93219,9.757996,-26.428223,17.448425
562,0.264282,-0.080261,0.885132,16.441345,-24.932861,12.580872
563,0.238525,-0.112732,0.934326,19.363403,-19.218445,10.604858
564,0.25824,-0.095276,0.919189,14.167786,-8.811951,0.259399
565,0.288696,-0.051697,0.898743,11.764526,-1.76239,-3.471375
566,0.28894,-0.040039,0.886719,11.772156,4.165649,-4.646301
567,0.269409,-0.029846,0.924133,12.191772,7.911682,-4.493713
568,0.268555,-0.007751,0.942322,12.237549,11.207581,-4.066467
569,0.249268,-0.002197,0.93396,14.36615,13.069153,-2.708435
570,0.241943,0.008545,0.942749,14.457703,14.396667,-0.587463
571,0.220703,0.001099,0.922058,13.076782,13.061523,4.066467
572,0.116821,0.046326,0.987183,16.952515,10.08606,-21.621704
573,0.137085,0.042786,1.006958,13.526917,9.498596,-20.271301
574,0.112671,0.018555,0.957886,12.359619,8.354187,-18.753052
575,0.112976,0.013,0.970093,11.413574,5.54657,-17.25769
576,0.106384,0.044067,1.023926,9.872437,3.479004,-16.799927
577,0.128723,0.045105,1.004028,8.514404,2.151489,-15.823364
578,0.146851,0.081482,0.952637,4.577637,0.63324,-13.870239
579,0.15863,0.106934,0.964539,0.823975,0.015259,-11.634827
580,0.140259,0.085205,0.985596,-3.143311,0.831604,-10.269165
581,0.121094,0.067993,0.977417,-7.339478,2.6474,-9.399414
582,0.108276,0.069763,0.963684,-15.81573,3.334045,-3.265381
583,0.054016,0.020081,1.061035,-17.02117,1.785278,1.617432
584,0.085205,-0.013489,1.038513,-15.2893,-1.266479,4.486084
585,0.126831,0.018799,1.021484,-12.48168,-4.295349,7.072449
586,0.182861,0.058228,0.999329,-11.15417,-6.347656,11.535645
587,0.261047,0.145081,0.99884,-13.12255,-7.118225,19.050598
588,0.318176,0.183899,0.967041,-18.36395,-7.797241,29.579163
589,0.212708,0.161499,0.914917,-28.83911,-18.64624,51.849365
590,0.203857,0.184082,0.943726,-35.82763,-28.442383,61.87439
591,0.216003,0.211182,0.999146,-40.55023,-37.42218,75.271606
592,0.170044,0.080139,1.085266,-43.2434,-43.746948,87.69989
593,0.149048,-0.048706,0.819397,-44.81506,-43.411255,98.548889
594,0.341248,-0.038574,0.673218,-11.37542,-31.219482,110.389709
595,-0.163879,-0.235107,1.126038,5.935669,-15.205383,114.486694
596,-0.147217,-0.332947,1.006287,35.453796,-19.90509,111.549377
597,-0.034668,-0.432312,0.968201,53.222656,-21.575928,94.680786
598,-0.098389,-0.484558,1.004761,46.081543,-15.937805,69.30542
599,-0.023376,-0.278503,0.955261,24.482727,-3.52478,24.520874
600,0.146118,-0.102356,0.864502,19.073486,5.531311,14.274597
601,0.129761,-0.034363,0.937622,17.288208,10.665894,8.743286
602,0.114685,-0.015747,0.975403,17.501831,11.352539,5.523682
603,0.104431,0.008667,1.026672,16.120911,11.428833,3.013611
604,0.090332,0.008057,1.054138,12.313843,9.094238,-1.075745
605,0.105042,0.019104,1.027527,10.139465,7.362366,-1.716614
606,0.130127,0.030518,0.975769,7.461548,6.309509,-1.091003
607,0.14209,0.016663,0.974609,5.142212,5.310059,0.25177
608,0.148254,0.004333,0.973389,3.471375,4.837036,2.006531
609,0.165039,-0.00824,0.973633,2.76947,4.333496,4.020691
610,0.193726,-0.03241,0.960449,3.501892,5.722046,9.780884
611,0.220459,-0.016113,0.913147,4.402161,6.103516,12.214661
612,0.170654,-0.036255,0.905823,4.005432,6.034851,15.792847
613,0.203186,-0.052429,1.001587,5.630493,8.277893,20.561218
614,0.119934,-0.039124,0.995667,8.903503,9.32312,25.45929
615,0.148254,-0.040466,1.017151,11.856079,6.744385,30.662537
616,0.157776,-0.019592,1.012329,16.296387,3.303528,41.473389
617,0.164246,0.007751,0.952637,17.112732,2.02179,46.638489
618,0.1604,0.007141,0.955444,16.563416,1.678467,51.65863
619,0.158264,0.005493,0.971924,16.052246,1.464844,56.167603
620,0.152832,0.00708,0.984192,15.846252,1.327515,60.035706
621,0.14679,0.006042,0.979553,15.50293,1.213074,63.163757
622,0.137146,0.005615,0.976135,14.846802,1.312256,65.628052
623,0.118713,-0.00116,0.970886,13.244629,1.464844,67.947388
624,0.109314,-0.006836,0.96814,12.687683,1.403809,67.817688
625,0.101379,-0.015747,0.97467,12.458801,1.243591,66.879272
626,0.096741,-0.018188,0.972961,12.489319,1.159668,65.040588
627,0.097168,-0.016235,0.974854,12.565613,1.213074,59.951782
628,0.095581,-0.015503,0.977051,12.519836,1.068115,57.121277
629,0.090271,-0.009521,0.978394,12.298584,0.793457,54.30603
630,0.082275,-0.006714,0.980286,11.802673,0.259399,51.712036
631,0.087524,-0.000488,0.991333,10.398865,-1.091003,46.272278
632,0.096497,0.005493,0.987732,9.605408,-1.51062,43.411255
633,0.103394,0.011963,0.981873,8.399963,-1.594543,40.847778
634,0.107239,0.015503,0.97937,6.950378,-1.365662,38.459778
635,0.107239,0.009399,0.980896,5.317688,-0.854492,35.964966
636,0.108093,0.009094,0.986206,3.52478,-0.106812,33.241272
637,0.108154,0.007507,0.979858,0.953674,1.930237,26.771545
638,0.114624,0.000549,0.968994,-0.457764,3.40271,23.170471
639,0.121643,0.00293,0.972229,-1.457214,4.814148,19.775391
640,0.127808,0.004761,0.977844,-2.632141,6.233215,17.112732
641,0.134521,0.006958,0.982544,-3.761292,7.530212,15.525818
642,0.134766,0.011536,0.98114,-5.92804,8.68988,16.815186
643,0.112427,0.010132,0.986328,-7.041931,8.369446,18.737793
644,0.099243,0.004578,0.983948,-8.171082,7.225037,20.767212
645,0.083679,-0.003601,0.984192,-8.995056,5.310059,22.331238
646,0.070129,-0.012573,0.982971,-9.651184,2.922058,23.391724
647,0.068481,-0.009583,0.96936,-9.765625,0.12207,23.429871
648,0.060303,-0.009277,1.035095,-12.74108,-3.707886,19.218445
649,0.05072,-0.029236,1.031677,-13.65661,-5.401611,15.602112
650,0.061218,-0.019287,0.970886,-12.62664,-8.346558,12.107849
651,0.066223,-0.020325,0.957764,-14.07623,-9.384155,8.674622
652,0.071167,-0.02887,0.980469,-15.51055,-10.269165,5.325317
653,0.085876,-0.038208,0.98114,-15.97595,-11.657715,2.174377
654,0.098511,-0.046875,0.972107,-15.51055,-13.839722,-0.686646
655,0.129028,-0.062317,0.957031,-14.08386,-14.381409,-0.587463
656,0.134399,-0.079224,0.955688,-12.33673,-14.305115,-0.221252
657,0.135193,-0.085693,0.94043,-9.727478,-13.710022,-0.244141
658,0.140869,-0.078491,0.934143,-4.325867,-12.573242,0.358582
659,0.145386,-0.066223,0.929077,-2.189636,-12.313843,1.235962
660,0.155579,-0.043152,0.922607,0.396729,-12.260437,2.243042
661,0.159302,-0.036926,0.926819,3.135681,-11.978149,3.608704
662,0.149658,-0.031006,0.949219,5.935669,-11.291504,5.889893
663,0.14502,-0.04071,0.910217,4.28772,-12.268066,14.526367
664,0.141785,-0.009094,1.038635,5.241394,-16.12854,17.219543
665,0.163147,0.006348,0.982544,6.271362,-19.355774,19.973755
666,0.153931,0.00293,0.989807,3.723145,-18.852234,23.178101
667,0.17511,0.001709,0.989441,4.737854,-21.499634,25.96283
668,0.164429,-0.00769,0.965576,10.215759,-25.398254,29.777527
669,0.169006,-0.032104,0.974915,13.885498,-26.199341,30.62439
670,0.161255,-0.041382,0.943726,18.539429,-27.061462,30.708313
671,0.152771,-0.045654,0.965271,19.874573,-25.909424,29.586792
672,0.138611,-0.065674,0.936218,21.980286,-24.879456,27.59552
673,0.090576,-0.075439,0.986389,8.964539,-12.664795,7.965088
674,0.098633,-0.062988,0.974792,6.706238,-10.475159,1.38855
675,0.112122,-0.043823,0.983093,4.615784,-10.696411,-6.057739
676,0.142334,-0.023376,0.968506,4.180908,-11.810303,-6.965637
677,0.161194,-0.022583,0.964233,3.684998,-12.397766,-7.392883
678,0.204102,-0.025513,0.952454,3.471375,-11.924744,-7.774353
679,0.264221,0.00885,0.933167,3.02124,-8.857727,-8.407593
680,0.255981,0.016174,0.947266,0.411987,-2.288818,-9.361267
681,0.249756,0.022705,0.940063,-1.831055,3.181458,-9.437561
682,0.265686,0.057007,0.947632,-7.904053,12.611389,-7.019043
683,0.275635,0.032532,0.962891,-9.925842,16.769409,-4.074097
684,0.264221,0.000732,0.946838,-8.834839,19.470215,-0.007629
685,0.234436,-0.024109,0.958252,-7.18689,22.094727,4.699707
686,0.184204,-0.036499,0.948547,-4.837036,23.696899,8.155823
687,0.161377,-0.032471,0.950134,-2.250671,24.002075,10.360718
688,0.136841,-0.072815,0.955566,0.343323,22.888184,11.749268
689,0.133057,-0.071777,0.965088,0.061035,22.926331,11.573792
690,0.138123,-0.052917,0.962097,1.296997,22.666931,12.733459
691,0.143738,-0.018799,0.964905,4.386902,21.224976,14.633179
692,0.131409,-0.050232,0.969177,7.743835,19.393921,16.212463
693,0.103333,-0.07782,0.978394,9.170532,18.295288,16.319275
694,0.095947,-0.069702,0.97229,6.858826,19.050598,14.266968
695,0.089539,-0.067139,0.959106,6.67572,19.180298,11.33728
696,0.086365,-0.063232,0.974609,5.722046,19.851685,7.354736
697,0.09021,-0.05188,0.98175,4.486084,20.294189,3.074646
698,0.106445,-0.030151,0.984924,1.602173,19.958496,-0.511169
699,0.106689,-0.01239,0.998413,0.854492,19.104004,0.1297
700,0.072937,-0.02124,1.008972,0.12207,17.402649,0.808716
701,0.063416,-0.021484,0.991516,-1.075745,15.037537,0.190735
702,0.065735,-0.016968,0.994873,-5.783081,12.252808,-4.02832
703,0.081482,-0.018799,1.003662,-7.926941,11.741638,-6.629944
704,0.092102,-0.021118,1.003357,-10.61248,12.428284,-9.140015
705,0.092468,-0.018677,0.980225,-12.14599,12.184143,-10.71167
706,0.094055,-0.017944,0.976379,-13.49639,11.016846,-10.398865
707,0.105957,-0.016296,0.987244,-15.22827,7.492065,-5.645752
708,0.136047,-0.018433,0.971985,-15.61737,6.446838,-2.792358
709,0.136597,-0.023193,0.966309,-16.55578,6.629944,-0.427246
710,0.116272,-0.032837,0.980652,-17.58575,7.583618,1.220703
711,0.082336,-0.050415,0.985474,-18.09692,7.713318,2.105713
712,0.055603,-0.065186,0.978149,-18.24188,6.652832,1.701355
713,0.041687,-0.075562,0.9729,-18.02825,4.966736,0.022888
714,0.025574,-0.085083,0.984436,-17.11273,0.495911,-6.538391
715,-0.000854,-0.0979,0.988159,-15.99884,-2.861023,-10.780334
716,0.019836,-0.10968,0.955933,-14.67132,-6.065369,-14.99176
717,0.044067,-0.11792,0.952026,-13.01574,-8.666992,-18.692017
718,0.085999,-0.125549,0.939636,-7.888794,-11.253357,-23.475647
719,0.0896,-0.117737,0.940735,-4.40979,-12.428284,-24.002075
720,0.092163,-0.108276,0.952209,-1.113892,-14.152527,-23.361206
721,0.102051,-0.093628,0.957703,2.037048,-16.387939,-21.827698
722,0.114502,-0.079712,0.965454,4.356384,-18.478394,-20.172119
723,0.137268,-0.057434,0.970337,6.126404,-20.317078,-18.432617
724,0.175415,-0.003113,0.993408,6.164551,-21.232605,-13.893127
725,0.187561,0.015381,1.006897,4.020691,-20.462036,-11.09314
726,0.206177,0.029358,1.021301,0.526428,-19.02771,-8.255005
727,0.225098,0.056519,1.036377,-4.570007,-16.326904,-5.271912
728,0.19165,0.070435,1.046082,-19.16503,-9.490967,-1.594543
729,0.162048,0.057861,1.019104,-26.98516,-6.965637,-1.953125
730,0.14624,-0.001099,1.012634,-33.12683,-5.485535,-2.174377
731,0.14563,-0.004211,1.013733,-37.78839,-4.455566,-2.029419
732,0.149841,0.000122,1.03064,-41.59545,-3.814697,-1.846313
733,0.149658,-0.005371,0.929138,-44.88372,-2.662659,-2.761841
734,0.174988,0.001038,0.938049,-42.55676,-2.311707,-3.211975
735,0.125671,-0.057312,0.998291,-40.60363,-2.76947,-4.226685
736,0.100464,-0.092468,0.975891,-39.74151,-3.669739,-6.072998
737,0.093933,-0.184998,0.928589,-34.84344,-6.17981,-7.911682
738,0.088928,-0.2229,0.990662,-36.10992,-5.516052,-11.161804
739,0.126465,-0.188782,1.009277,-42.22869,-1.899719,-15.258789
740,0.152161,-0.205139,1.032288,-45.8908,-0.541687,-17.723083
741,0.233398,-0.344849,1.049744,-54.73327,-5.027771,-19.210815
742,0.266846,-0.424805,1.058655,-58.80737,-11.863708,-18.52417
743,0.27832,-0.518921,1.070251,-64.53704,-20.53833,-18.379211
744,0.279602,-0.559387,1.0755,-73.32611,-29.876709,-19.355774
745,0.282959,-0.574707,1.062805,-84.93042,-38.223267,-21.469116
746,0.282166,-0.586243,1.0578,-100.7385,-43.983459,-24.360657
747,0.283508,-0.587463,1.043091,-119.7586,-48.103333,-27.397156
748,0.31073,-0.555115,1.030823,-153.5415,-53.771973,-31.410217
749,0.319702,-0.526794,1.01355,-165.2526,-56.510925,-31.906128
750,0.322388,-0.489929,1.000122,-174.5147,-58.044434,-32.302856
751,0.320374,-0.446289,0.995117,-181.4727,-58.09021,-32.691956
752,0.311218,-0.367065,1.082764,-181.3507,-55.198669,-32.394409
753,0.308655,-0.318726,1.130005,-179.7866,-49.484253,-31.059265
754,0.301758,-0.26886,1.17218,-175.7507,-42.167664,-27.610779
755,0.275269,-0.231384,1.195557,-167.2592,-35.545349,-21.636963
756,0.231873,-0.219788,1.222107,-156.1126,-28.823853,-13.999939
757,0.177551,-0.195984,1.189697,-129.2114,-12.825012,4.768372
758,0.172546,-0.199158,1.149048,-115.0817,-3.479004,15.281677
759,0.165466,-0.230347,1.110291,-102.1804,6.843567,25.238037
760,0.159607,-0.277466,1.07782,-91.30096,17.356873,34.217834
761,0.172241,-0.337708,1.060486,-83.0307,27.458191,41.984558
762,0.193298,-0.40033,1.045593,-73.46344,41.755676,54.336548
763,0.215759,-0.464111,1.020813,-71.43402,46.035767,58.822632
764,0.247681,-0.575745,0.941284,-70.3659,48.881531,61.836243
765,0.259888,-0.626526,0.91571,-69.61059,49.728394,63.735962
766,0.266602,-0.676147,0.891602,-69.64111,47.935486,64.697266
767,0.269653,-0.704163,0.864197,-73.86016,39.413452,64.39209
768,0.261597,-0.761902,0.84137,-77.69775,34.317017,63.88855
769,0.259949,-0.783997,0.849365,-84.83886,29.556274,63.140869
770,0.254272,-0.7854,0.848877,-95.47424,25.680542,61.798096
771,0.229004,-0.779175,0.831421,-105.2322,21.270752,61.424255
772,0.201111,-0.793091,0.840698,-111.0458,15.563965,62.980652
773,0.131165,-0.826416,0.87854,-115.6387,10.047913,61.401367
774,0.232361,-0.823425,0.895874,-123.1765,-2.006531,50.956726
775,0.279419,-0.77832,0.832825,-134.8571,-4.112244,44.395447
776,0.275635,-0.724243,0.832214,-144.7067,-2.319336,38.55896
777,0.261719,-0.691101,0.820923,-145.1034,0.831604,37.139893
778,0.212708,-0.697815,0.818481,-143.3105,3.53241,39.978027
779,0.204285,-0.721619,0.807739,-141.8304,7.087708,44.311523
780,0.20166,-0.754456,0.78772,-140.8004,11.08551,49.598694
781,0.195557,-0.783997,0.76947,-140.6707,15.24353,55.404663
782,0.184082,-0.804688,0.759705,-143.2342,23.4375,69.122314
783,0.146606,-0.817688,0.74176,-145.3018,27.160645,76.438904
784,0.11145,-0.815735,0.741455,-147.6058,31.196594,83.67157
785,0.080994,-0.807495,0.750977,-149.6582,35.171509,90.530396
786,0.048645,-0.789856,0.752014,-151.0314,38.993835,96.954346
787,0.019958,-0.766663,0.747498,-151.4053,42.518616,103.126526
788,-0.005554,-0.74176,0.727112,-150.978,45.967102,108.772278
789,-0.02533,-0.715881,0.705261,-148.0636,53.05481,118.44635
790,-0.049255,-0.659424,0.653259,-145.9579,56.747437,121.97113
791,-0.052856,-0.63562,0.634033,-143.8369,60.134888,124.916077
792,-0.050232,-0.612183,0.608276,-141.6702,62.812805,127.220154
793,-0.04187,-0.590454,0.580383,-137.8173,66.497803,130.699158
794,-0.038391,-0.554382,0.52179,-135.6964,67.481995,131.530762
795,-0.046082,-0.535217,0.491211,-133.1405,67.802429,131.240845
796,-0.054443,-0.513062,0.475403,-129.9438,67.298889,129.768372
797,-0.055298,-0.493835,0.460205,-125.9765,65.948486,127.441406
798,-0.052002,-0.480896,0.451782,-116.1193,61.225891,120.109558
799,-0.019043,-0.477783,0.417114,-110.3439,58.746338,115.29541
800,-0.004395,-0.483093,0.413147,-104.1564,56.282043,109.840393
801,0.006836,-0.479431,0.426453,-98.19793,53.520203,104.125977
802,0.032654,-0.481323,0.429504,-92.53692,50.254822,98.716736
803,0.054932,-0.488647,0.434326,-87.23449,47.073364,93.780518
804,0.06604,-0.513123,0.417175,-82.1762,42.58728,89.775085
805,0.093201,-0.537476,0.372437,-76.49993,36.575317,85.655212
806,0.132324,-0.601074,0.460022,-57.57141,15.342712,70.81604
807,0.106384,-0.616516,0.511719,-53.06243,10.910034,66.970825
808,0.075562,-0.633789,0.561279,-49.1867,7.43103,62.393188
809,0.047913,-0.653076,0.615967,-46.71478,5.233765,56.854248
810,0.032898,-0.673157,0.65686,-45.578,4.325867,50.582886
811,0.015625,-0.688293,0.670227,-46.95892,7.621765,38.124084
812,-0.062378,-0.686279,0.650879,-46.78344,11.329651,32.936096
813,-0.091736,-0.684326,0.620239,-45.30334,14.152527,28.366089
814,-0.104858,-0.684326,0.576477,-42.53387,15.625,24.391174
815,-0.102539,-0.679932,0.52063,-38.86413,15.586853,20.835876
816,-0.104858,-0.679565,0.465942,-30.18951,11.84082,14.724731
817,-0.118042,-0.692444,0.382813,-26.51214,9.315491,12.367249
818,-0.133667,-0.702209,0.364685,-23.87237,7.049561,10.887146
819,-0.148865,-0.715393,0.368042,-22.7127,5.363464,9.94873
820,-0.158875,-0.725525,0.391846,-22.85766,4.188538,9.254456
821,-0.164001,-0.732666,0.464417,-24.86419,2.555847,8.590698
822,-0.142334,-0.792236,0.497559,-27.6947,-1.937866,7.629395
823,-0.186707,-0.850891,0.475281,-31.78405,-12.634277,0.045776
824,-0.211914,-0.875671,0.565674,-37.42218,-15.167236,-4.989624
825,-0.199829,-0.899475,0.496399,-41.78619,-19.165039,-9.841919
826,-0.203857,-0.910156,0.506836,-48.24829,-22.285461,-15.144348
827,-0.210327,-0.90863,0.452148,-51.36871,-24.986267,-20.736694
828,-0.222229,-0.881226,0.434021,-55.37414,-24.749756,-31.486511
829,-0.240356,-0.776001,0.429016,-55.29022,-23.918152,-35.102844
830,-0.241028,-0.72876,0.409546,-52.13928,-23.246765,-37.246704
831,-0.242554,-0.708069,0.379822,-46.86737,-22.079468,-38.391113
832,-0.244995,-0.706604,0.337158,-39.67285,-20.797729,-38.841248
833,-0.247375,-0.723083,0.302185,-24.20043,-16.281128,-37.506104
834,-0.243713,-0.771667,0.24176,-17.08221,-13.35144,-36.430359
835,-0.217529,-0.787659,0.228333,-10.82611,-10.154724,-35.072327
836,-0.191895,-0.767151,0.187012,-4.493713,-7.354736,-33.462524
837,-0.182007,-0.727905,0.114929,9.300232,0.480652,-28.617859
838,-0.179138,-0.742188,0.112366,15.960693,5.516052,-26.069641
839,-0.173035,-0.766785,0.137573,21.507263,9.819031,-23.155212
840,-0.172363,-0.793762,0.184692,26.039124,13.076782,-20.103455
841,-0.181763,-0.828918,0.247559,30.448914,14.915466,-17.478943
842,-0.194092,-0.872986,0.307678,35.591125,15.693665,-15.686035
843,-0.2099,-0.960266,0.424561,37.849426,14.328003,-15.800476
844,-0.181152,-1.065857,0.531555,38.414001,8.789063,-20.545959
845,-0.12085,-1.070374,0.516785,28.945923,8.323669,-27.275085
846,-0.117249,-1.035706,0.533081,13.694763,10.284424,-35.461426
847,-0.122253,-0.989258,0.505676,4.211426,9.368896,-42.08374
848,-0.136169,-0.915527,0.474731,-6.896973,5.859375,-50.384521
849,-0.052673,-0.849609,0.446594,-9.727478,4.493713,-52.284241
850,0.022644,-0.745483,0.385498,-8.918762,1.907349,-50.689697
851,0.086914,-0.662537,0.352173,-5.180359,-0.717163,-46.264648
852,0.174988,-0.593994,0.295288,2.807617,-4.470825,-39.108276
853,0.236572,-0.562134,0.283997,25.299072,-16.227722,-18.447876
854,0.427551,-0.46759,0.221436,39.81781,-25.57373,-4.631042
855,0.487427,-0.459778,0.211304,55.686951,-35.972595,10.017395
856,0.465393,-0.452942,0.201111,72.357178,-46.875,25.024414
857,0.289856,-0.476929,0.215942,104.01153,-62.75177,50.666809
858,-0.017944,-0.582642,0.229492,116.19567,-63.995361,57.609558
859,-0.541809,-1.049561,0.389038,123.20709,-57.998657,59.547424
860,-0.571228,-1.217834,0.519104,140.95306,-56.632996,63.224792
861,-0.862,-1.643311,0.479004,140.70892,-54.351807,63.369751
862,-0.969727,-1.571655,0.354919,90.171814,-33.309937,59.440613
863,-0.401489,-0.925842,0.374023,-6.034851,6.072998,23.666382
864,-0.112854,-0.622742,0.702026,-37.53662,38.642883,-2.52533
865,-0.134399,-0.650146,0.390198,-42.91534,55.717468,-16.227722
866,-0.041077,-0.682129,1.19812,-8.003235,8.31604,-20.545959
867,0.056641,-0.780334,0.946899,3.982544,-1.365662,-25.154114
868,0.055847,-0.884888,0.609009,-8.766174,20.378113,-25.779724
869,0.060791,-0.848694,0.653748,-19.64569,32.714844,-23.887634
870,0.04187,-0.84906,0.622253,-25.68817,35.362244,-24.475098
871,0.002747,-0.871643,0.616394,-32.05108,37.376404,-23.918152
872,-0.048218,-0.890991,0.616394,-39.03198,38.040161,-22.506714
873,-0.154419,-0.93573,0.632141,-53.78723,41.603088,-20.973206
874,-0.168701,-0.942017,0.612732,-59.52453,43.72406,-22.171021
875,-0.152954,-0.918579,0.578918,-63.04931,44.502258,-23.986816
876,-0.123962,-0.881042,0.538086,-63.94195,44.799805,-25.932312
877,-0.083618,-0.842896,0.492188,-62.59155,44.670105,-27.549744
878,-0.050476,-0.816528,0.450989,-59.42535,44.10553,-28.526306
879,-0.036865,-0.791626,0.408813,-54.70275,43.487549,-28.747559
880,-0.043335,-0.779419,0.368408,-42.51861,43.334961,-27.656555
881,-0.089722,-0.798157,0.313171,-36.14044,44.677734,-26.96228
882,-0.122986,-0.817139,0.311646,-30.60913,46.875,-26.260376
883,-0.149292,-0.839783,0.327332,-25.84838,49.530029,-25.627136
884,-0.158997,-0.859924,0.357422,-22.04132,52.322388,-25.444031
885,-0.142639,-0.863525,0.390137,-15.14434,55.862427,-25.45166
886,-0.134155,-0.847595,0.420227,-11.52801,56.587219,-25.489807
887,-0.144714,-0.820618,0.385315,-8.026123,57.678223,-25.032043
888,-0.163147,-0.794739,0.357422,-5.058289,60.317993,-23.109436
889,-0.181641,-0.767212,0.341003,-2.7771,64.025879,-19.248962
890,-0.207214,-0.711548,0.313538,1.953125,77.590942,-5.805969
891,-0.198242,-0.680359,0.276428,7.720947,89.370728,6.385803
892,-0.123962,-0.668518,0.268982,19.035339,91.98761,14.266968
893,-0.095459,-0.854309,0.558777,24.116516,95.123291,21.652222
894,-0.163574,-0.897095,0.492249,17.463684,63.148499,18.875122
895,-0.237976,-0.694885,0.419189,21.064758,59.936523,18.386841
896,-0.262146,-0.878906,0.432007,23.483276,50.346375,16.815186
897,-0.219055,-1.075745,0.345642,23.391724,43.060303,12.489319
898,-0.260803,-0.940186,0.408325,22.132874,43.083191,13.786316
899,-0.279663,-0.870911,0.444397,22.422791,39.44397,18.493652
900,-0.323303,-0.852966,0.469849,24.673462,34.988403,17.936707
901,-0.342285,-0.864441,0.475342,27.09198,30.609131,17.120361
902,-0.34491,-0.874268,0.467651,29.22821,26.611328,16.448975
903,-0.34906,-0.883118,0.457825,31.074524,23.109436,15.426636
904,-0.364502,-0.894104,0.454468,32.524109,20.019531,13.702393
905,-0.375427,-0.903748,0.454102,33.760071,18.005371,11.657715
906,-0.386963,-0.907837,0.461853,34.606934,15.510559,7.675171
907,-0.403625,-0.889893,0.459473,34.286499,14.030457,6.164551
908,-0.416382,-0.878418,0.454285,33.668518,12.489319,5.073547
909,-0.432373,-0.870667,0.450928,32.737732,11.459351,4.142761
910,-0.458496,-0.862488,0.445862,31.997681,11.489868,3.669739
911,-0.483887,-0.854126,0.448975,30.944824,15.74707,3.448486
912,-0.524841,-0.848877,0.486206,30.212402,19.523621,3.52478
913,-0.515503,-0.842834,0.481384,28.785706,24.421692,4.020691
914,-0.523499,-0.813599,0.462585,26.367188,28.961182,4.570007
915,-0.503662,-0.798157,0.477234,23.681641,31.814575,3.211975
916,-0.492493,-0.810669,0.492981,19.91272,37.330627,1.533508
917,-0.470581,-0.784058,0.481873,19.416809,40.061951,1.091003
918,-0.463074,-0.780273,0.467529,19.744873,41.893005,-0.244141
919,-0.452942,-0.791748,0.473999,20.851135,43.34259,-1.88446
920,-0.434082,-0.799316,0.473267,22.323608,44.631958,-3.204346
921,-0.419434,-0.796143,0.466553,24.032593,45.532227,-4.356384
922,-0.392944,-0.806213,0.453369,27.824402,45.448303,-7.987976
923,-0.378723,-0.813904,0.450806,29.502869,45.341492,-9.490967
924,-0.351379,-0.812744,0.450195,31.364441,44.380188,-10.71167
925,-0.326599,-0.810364,0.450256,35.476685,40.710449,-14.328003
926,-0.302429,-0.824585,0.447083,37.124634,37.307739,-16.693115
927,-0.289612,-0.810791,0.451111,38.841248,33.13446,-19.27948
928,-0.277405,-0.798706,0.447388,40.115356,29.647827,-21.606445
929,-0.260925,-0.799316,0.447144,41.015625,26.626587,-23.742676
930,-0.249207,-0.803162,0.448425,41.358948,24.200439,-25.688171
931,-0.241455,-0.797607,0.453308,40.969849,22.445679,-27.282715
932,-0.242676,-0.77887,0.464844,39.581299,20.584106,-28.427124
933,-0.240234,-0.765869,0.477356,38.230896,20.729065,-28.091431
934,-0.237671,-0.756287,0.478088,36.78894,21.156311,-27.069092
935,-0.23053,-0.750366,0.486084,35.652161,21.682739,-25.474548
936,-0.222656,-0.753174,0.483337,34.454346,21.697998,-23.612976
937,-0.215271,-0.751343,0.474243,33.378601,21.194458,-21.568298
938,-0.215088,-0.755737,0.465088,34.40094,19.104004,-17.044067
939,-0.220886,-0.755554,0.464661,37.605286,17.204285,-14.602661
940,-0.269592,-0.77124,0.458557,37.689209,15.769958,-10.261536
941,-0.282532,-0.76593,0.461365,37.338257,16.036987,-9.552002
942,-0.292175,-0.763245,0.478699,37.704468,16.029358,-9.025574
943,-0.296875,-0.757751,0.494812,38.101196,15.87677,-8.651733
944,-0.30365,-0.754395,0.497803,37.818909,15.731812,-8.644104
945,-0.308105,-0.749512,0.513367,34.332275,16.25061,-9.628296
946,-0.317993,-0.748352,0.528564,31.62384,17.13562,-10.444641
947,-0.349548,-0.739075,0.542175,29.502869,18.493652,-11.070251
948,-0.369568,-0.738037,0.536011,27.748108,19.91272,-11.58905
949,-0.384521,-0.74231,0.527832,26.84021,21.194458,-12.359619
950,-0.39502,-0.757019,0.515686,26.939392,23.651123,-14.358521
951,-0.3927,-0.760559,0.506592,27.46582,24.429321,-15.945435
952,-0.382874,-0.763672,0.505188,27.526855,24.208069,-17.959595
953,-0.364258,-0.770447,0.509888,27.748108,23.323059,-20.469666
954,-0.347656,-0.768372,0.502869,28.106689,22.422791,-23.002625
955,-0.332275,-0.764771,0.496948,28.816223,21.362305,-28.053284
956,-0.317017,-0.766968,0.485596,29.716492,21.362305,-29.785156
957,-0.285034,-0.767944,0.484253,30.906677,21.492004,-30.61676
958,-0.262756,-0.769348,0.48407,32.051086,21.362305,-30.62439
959,-0.240295,-0.769165,0.485535,32.88269,21.018982,-30.097961
960,-0.218445,-0.767639,0.490295,34.286499,19.493103,-26.634216
961,-0.186035,-0.756287,0.476624,34.477234,18.692017,-24.32251
962,-0.171143,-0.746643,0.480042,34.393311,17.593384,-22.018433
963,-0.159973,-0.738037,0.482483,34.01947,16.334534,-19.462585
964,-0.149536,-0.728027,0.486633,32.752991,15.434265,-16.685486
965,-0.141052,-0.715576,0.483154,30.838013,14.465332,-13.900757
966,-0.121155,-0.69574,0.491089,24.482727,13.183594,-7.530212
967,-0.117432,-0.687622,0.500061,20.828247,12.72583,-4.180908
968,-0.113098,-0.671448,0.508728,16.75415,12.733459,-0.572205
969,-0.108582,-0.655457,0.518188,12.046814,12.931824,3.189087
970,-0.100952,-0.631958,0.515381,6.958008,12.939453,7.026672
971,-0.098145,-0.593811,0.489929,1.449585,12.611389,10.612488
972,-0.103638,-0.557861,0.473206,-11.5509,11.230469,14.030457
973,-0.122803,-0.524536,0.466248,-17.79174,11.405945,14.167786
974,-0.125671,-0.517517,0.453369,-22.86529,12.550354,13.60321
975,-0.119019,-0.51825,0.436768,-27.21405,15.106201,11.97052
976,-0.10614,-0.520691,0.430969,-31.01348,19.035339,9.628296
977,-0.094116,-0.530457,0.438354,-38.24615,30.227661,5.28717
978,-0.088257,-0.5578,0.453308,-41.4505,37.063599,5.195618
979,-0.089661,-0.566528,0.452881,-45.08972,44.471741,7.385254
980,-0.071899,-0.578613,0.417358,-49.09515,51.66626,11.650085
981,-0.070313,-0.590576,0.392212,-54.05426,56.243896,16.784668
982,-0.096985,-0.56897,0.397888,-67.45147,57.533264,25.878906
983,-0.15741,-0.541382,0.484863,-70.95336,57.655334,30.860901
984,-0.128906,-0.561523,0.532349,-70.61004,59.745789,31.50177
985,-0.152893,-0.576355,0.429749,-66.90216,60.249329,30.227661
986,-0.218872,-0.616028,0.377869,-66.6275,54.702759,31.188965
987,-0.248535,-0.638855,0.372192,-68.55011,50.018311,30.601501
988,-0.273804,-0.658081,0.340942,-69.62585,45.219421,29.220581
989,-0.277283,-0.680481,0.318604,-69.62585,41.542053,27.244568
990,-0.259949,-0.739502,0.31958,-69.49615,39.489746,25.260925
991,-0.185669,-0.959595,0.425598,-74.1043,40.313721,35.194397
992,-0.107239,-0.993164,0.358887,-79.93316,41.816711,47.370911
993,-0.174927,-0.941223,0.320496,-84.8999,41.931152,56.648254
994,-0.272583,-0.870972,0.289734,-87.85247,40.69519,61.660767
995,-0.355103,-0.812134,0.246887,-92.04864,41.236877,63.621521
996,-0.416443,-0.768066,0.237793,-96.97723,44.822693,62.6297
997,-0.464417,-0.74585,0.302979,-91.43829,45.23468,59.577942
998,-0.486816,-0.723022,0.286621,-91.32385,54.008484,49.919128
999,-0.534851,-0.741089,0.291321,-88.82141,57.006836,45.646667
1000,-0.507385,-0.762451,0.300476,-84.51843,60.36377,42.022705
1001,-0.506836,-0.777527,0.312378,-78.71246,61.569214,38.18512
1002,-0.512024,-0.792664,0.343018,-72.21984,61.843872,34.553528
1003,-0.534546,-0.803955,0.348572,-65.44494,62.12616,31.410217
1004,-0.547302,-0.816162,0.356689,-52.58178,62.530518,24.406433
1005,-0.555725,-0.829285,0.35614,-46.12731,62.675476,20.652771
1006,-0.580017,-0.857605,0.342102,-39.64996,62.805176,16.944885
1007,-0.595886,-0.871216,0.34491,-33.37097,63.140869,13.504028
1008,-0.613708,-0.88269,0.347046,-27.6184,63.598633,10.322571
1009,-0.654602,-0.897156,0.352783,-18.08929,65.689087,5.2948
1010,-0.675354,-0.89624,0.364014,-14.57977,67.062378,2.906799
1011,-0.691589,-0.893921,0.371338,-11.23046,67.886353,0.205994
1012,-0.712463,-0.886963,0.380005,-8.094788,68.008423,-2.693176
1013,-0.768677,-0.853699,0.370667,-5.67627,66.879272,-6.378174
1014,-0.762146,-0.816772,0.30188,-3.990173,61.714172,-12.313843
1015,-0.720337,-0.832397,0.322144,-3.746033,56.648254,-18.432617
1016,-0.609741,-0.888,0.379333,-2.288818,50.048828,-29.762268
1017,-0.604248,-0.887268,0.449646,-0.869751,49.926758,-33.790588
1018,-0.542114,-0.93335,0.359192,2.548218,51.139832,-37.002563
1019,-0.533447,-0.918884,0.338074,6.332397,50.804138,-38.68103
1020,-0.547607,-0.900574,0.33844,14.694214,45.349121,-40.840149
1021,-0.544189,-0.920105,0.309753,19.020081,40.69519,-40.82489
1022,-0.493408,-1.030701,0.279419,22.758484,34.561157,-38.101196
1023,-0.455444,-1.073181,0.30658,25.96283,28.022766,-32.88269
1024,-0.450256,-1.085938,0.33551,28.068542,22.407532,-25.932312
1025,-0.478821,-1.069763,0.364563,29.243469,14.648438,-12.748718
1026,-0.5755,-0.953552,0.34906,27.313232,13.206482,-9.819031
1027,-0.614136,-0.908569,0.35144,25.085449,13.35907,-10.185242
1028,-0.646973,-0.880676,0.360291,25.123596,13.74054,-12.901306
1029,-0.668518,-0.86615,0.366333,26.054382,14.610291,-17.356873
1030,-0.67511,-0.862915,0.375977,27.397156,16.174316,-23.223877
1031,-0.668701,-0.88385,0.370483,29.060364,17.745972,-30.189514
1032,-0.664063,-0.912476,0.366211,30.433655,20.423889,-43.403625
1033,-0.651855,-0.911072,0.395447,30.830383,21.690369,-48.957825
1034,-0.636841,-0.909485,0.396179,30.975342,22.56012,-54.527283
1035,-0.61322,-0.915344,0.383179,31.280518,23.040771,-60.211182
1036,-0.579529,-0.920593,0.365112,31.852722,23.338318,-66.070557
1037,-0.542847,-0.921326,0.359131,33.52356,23.696899,-77.308655
1038,-0.462708,-0.930542,0.368591,35.438538,23.963928,-81.001282
1039,-0.419861,-0.935242,0.378174,37.727356,24.772644,-82.427979
1040,-0.383606,-0.92981,0.39801,39.886475,26.0849,-81.550598
1041,-0.300415,-0.932983,0.372253,44.532776,28.823853,-75.691223
1042,-0.257202,-0.935364,0.340881,45.753479,28.457642,-71.304321
1043,-0.22583,-0.93042,0.326599,45.425415,26.2146,-66.169739
1044,-0.203979,-0.90918,0.332642,44.029236,22.819519,-60.48584
1045,-0.166138,-0.863586,0.345337,41.633606,19.203186,-53.916931
1046,-0.114868,-0.844238,0.374207,38.81073,15.785217,-46.24939
1047,-0.131531,-0.862732,0.361328,29.830933,10.894775,-25.596619
1048,-0.151917,-0.782837,0.382813,24.711609,9.391785,-14.36615
1049,-0.165161,-0.754578,0.356689,19.828796,7.469177,-3.570557
1050,-0.179443,-0.742126,0.361145,14.907837,4.890442,6.408691
1051,-0.178955,-0.735962,0.327881,6.05011,-0.213623,25.276184
1052,-0.178162,-0.73761,0.303589,1.373291,-1.350403,36.865234
1053,-0.138611,-0.758667,0.301331,-3.509521,-2.105713,50.102234
1054,-0.114563,-0.768494,0.300293,-8.537292,-3.303528,64.346313
1055,-0.095581,-0.77179,0.286621,-13.44299,-5.020142,79.025269
1056,-0.073914,-0.773499,0.276794,-18.15795,-6.576538,94.161987
1057,-0.044067,-0.781067,0.264832,-22.31597,-7.835388,109.405518
1058,-0.017151,-0.799255,0.223389,-26.42822,-9.170532,138.298035
1059,-0.04657,-0.767029,0.221558,-25.6195,-7.987976,151.145935
1060,-0.124268,-0.707581,0.283875,-22.86529,-4.890442,162.04071
1061,-0.199341,-0.659058,0.32074,-21.40045,-1.335144,170.806885
1062,-0.1922,-0.654175,0.281738,-21.97265,1.029968,177.307129
1063,-0.16449,-0.674438,0.21521,-27.32849,1.243591,186.87439
1064,-0.241089,-0.652344,0.270264,-31.98242,-1.022339,190.361023
1065,-0.258057,-0.636292,0.2677,-38.40637,-3.585815,193.435669
1066,-0.282104,-0.634338,0.293396,-45.3186,-6.072998,197.105408
1067,-0.305298,-0.643555,0.299194,-52.81829,-8.300781,201.35498
1068,-0.34137,-0.63501,0.291992,-70.38116,-11.871338,209.785461
1069,-0.354004,-0.619263,0.273315,-79.74243,-13.641357,213.630676
1070,-0.375732,-0.59906,0.247131,-88.80615,-15.586853,217.033386
1071,-0.39917,-0.580505,0.220398,-96.96197,-18.135071,219.909668
1072,-0.429749,-0.563232,0.187805,-103.7673,-20.835876,222.419739
1073,-0.455933,-0.549072,0.157776,-108.0703,-22.750854,224.319458
1074,-0.496399,-0.526123,0.155945,-105.4687,-21.324158,225.952148
1075,-0.674988,-0.470276,0.176819,-79.98657,-8.888245,232.444763
1076,-0.711853,-0.48645,0.152771,-71.67816,-2.76947,235.389709
1077,-0.731323,-0.497192,0.165222,-64.4226,4.089355,237.579346
1078,-0.725037,-0.49646,0.189148,-58.07495,9.857178,239.151001
1079,-0.721008,-0.496338,0.191833,-52.71911,13.534546,240.394592
1080,-0.726318,-0.497437,0.179138,-48.71368,15.258789,241.706848
1081,-0.73468,-0.508606,0.175659,-46.11969,15.182495,244.316101
1082,-0.753967,-0.513123,0.178284,-47.07336,13.648987,245.429993
1083,-0.771973,-0.502197,0.177979,-48.7442,11.375427,246.063232
1084,-0.796875,-0.481079,0.175049,-49.97253,9.025574,245.872498
1085,-0.830505,-0.460754,0.1698,-50.17852,6.874084,244.827271
1086,-0.858398,-0.435791,0.171753,-47.14965,3.639221,240.341187
1087,-0.894958,-0.398254,0.15918,-44.02923,2.929688,237.373352
1088,-0.908447,-0.379272,0.176331,-39.61181,3.234863,233.276367
1089,-0.937256,-0.341553,0.18811,-34.12628,3.990173,228.58429
1090,-0.973145,-0.328674,0.187195,-29.96063,4.219055,224.197388
1091,-1.004333,-0.320984,0.189453,-22.66693,6.68335,213.813782
1092,-1.047607,-0.300171,0.220825,-17.05169,9.32312,207.443237
1093,-1.056213,-0.299561,0.221558,-10.39123,12.390137,200.263977
1094,-1.056519,-0.306885,0.217163,-3.807068,15.403748,192.466736
1095,-1.060913,-0.312927,0.209961,1.548767,18.173218,184.196472
1096,-1.067383,-0.312439,0.200928,7.637024,22.346497,166.473389
1097,-1.062988,-0.307434,0.207092,8.621216,23.658752,157.485962
1098,-1.065918,-0.301392,0.216614,8.804321,24.44458,148.345947
1099,-1.074341,-0.291809,0.220581,8.834839,24.871826,139.068604
1100,-1.089844,-0.278503,0.216553,8.56781,26.947021,122.322083
1101,-1.113892,-0.266724,0.223267,8.636475,28.747559,115.341187
1102,-1.117371,-0.26709,0.230225,8.613586,30.883789,109.00116
1103,-1.118286,-0.268188,0.23999,8.453369,33.248901,103.218079
1104,-1.111206,-0.264099,0.239746,8.354187,35.720825,98.297119
1105,-1.107605,-0.255188,0.238525,8.720398,38.42926,93.87207
1106,-1.112549,-0.248718,0.241699,8.987427,41.427612,90.385437
1107,-1.115051,-0.246094,0.245178,8.369446,47.958374,84.793091
1108,-1.091675,-0.243774,0.220703,7.69043,50.949097,82.061768
1109,-1.079956,-0.237061,0.201782,6.881714,53.222656,79.353333
1110,-1.070007,-0.229248,0.180054,6.324768,54.885864,77.011108
1111,-1.068909,-0.221924,0.170349,6.599426,55.503845,74.913025
1112,-1.074036,-0.21582,0.15863,8.407593,55.671692,72.792053
1113,-1.080261,-0.211426,0.138855,9.521484,55.511475,72.692871
1114,-1.076416,-0.21283,0.131653,10.475159,54.954529,72.83783
1115,-1.06604,-0.211365,0.123779,11.123657,53.970337,73.242188
1116,-1.056763,-0.210205,0.119019,11.184692,52.444458,73.905945
1117,-1.047607,-0.204346,0.112244,10.612488,50.621033,74.661255
1118,-1.04126,-0.195801,0.101074,9.353638,48.568726,75.820923
1119,-1.037964,-0.186646,0.093262,7.881165,46.287537,77.590942
1120,-1.039673,-0.173401,0.090027,4.974365,40.687561,82.702637
1121,-1.03479,-0.150635,0.070923,3.662109,37.67395,86.051941
1122,-1.030396,-0.137329,0.06604,2.189636,34.660339,89.691162
1123,-1.027771,-0.129761,0.065796,0.724792,31.860352,93.383789
1124,-1.025452,-0.115479,0.073181,-0.793457,29.457092,96.847534
1125,-1.036316,-0.071472,0.088684,-3.425598,26.939392,103.019714
1126,-1.046509,-0.0448,0.093872,-4.219055,26.672363,105.705261
1127,-1.050476,-0.024475,0.094543,-4.486084,27.099609,107.978821
1128,-1.044617,-0.005737,0.08667,-4.554749,27.96936,109.680176
1129,-1.035278,0.010071,0.080444,-4.03595,29.136658,110.89325
1130,-1.022827,0.044189,0.064697,-3.463745,29.258728,110.557556
1131,-1.021729,0.062927,0.061707,-2.967834,29.190063,110.023499
1132,-1.03064,0.0849,0.054016,-2.601624,28.961182,109.436035
1133,-1.033997,0.097778,0.05603,-2.456665,29.281616,109.115601
1134,-1.029236,0.105652,0.068359,-3.425598,30.052185,107.452393
1135,-1.017822,0.132141,0.066223,-4.631042,29.891968,105.59082
1136,-1.01001,0.145325,0.065796,-6.561279,29.846191,103.20282
1137,-1.005615,0.157227,0.069336,-8.857727,29.86145,100.43335
1138,-1.003967,0.171814,0.07074,-11.42883,29.960632,97.053528
1139,-0.999756,0.192871,0.067993,-14.00756,29.930115,93.437195
1140,-0.999695,0.216919,0.059143,-16.28112,29.815674,89.813232
1141,-1.002563,0.237732,0.043396,-18.16558,30.006409,85.998535
1142,-0.994751,0.2677,0.01825,-20.44677,30.593872,77.674866
1143,-0.989746,0.280945,0.006592,-20.38574,30.906677,72.807312
1144,-0.98584,0.296326,0.003235,-19.47784,31.227112,67.344666
1145,-0.986145,0.309448,0.008545,-17.64679,31.829834,61.630249
1146,-0.989319,0.322266,0.01416,-15.06805,32.775879,55.938721
1147,-0.999268,0.331665,0.017273,-11.97814,34.141541,50.39978
1148,-1.009338,0.342468,0.022766,-8.522034,35.949707,44.85321
1149,-1.017883,0.352783,0.024597,-2.098083,40.214539,33.790588
1150,-1.014832,0.364441,0.042603,0.785828,41.847229,27.870178
1151,-1.010803,0.365112,0.054199,3.250122,42.861938,21.583557
1152,-1.002563,0.367126,0.068787,5.1651,43.266296,15.022278
1153,-0.991943,0.372314,0.080872,6.958008,42.655945,8.125305
1154,-0.985107,0.374878,0.084106,8.842468,40.061951,-6.408691
1155,-0.976807,0.373474,0.106445,9.666443,37.712097,-13.931274
1156,-0.969116,0.372803,0.120605,10.406494,34.759521,-21.614075
1157,-0.963806,0.371887,0.133606,11.146545,31.63147,-29.243469
1158,-0.962158,0.369873,0.148743,12.489319,26.016235,-43.952942
1159,-0.967834,0.363098,0.157104,13.580322,23.292542,-50.65155
1160,-0.965637,0.357483,0.157349,15.609741,20.637512,-56.816101
1161,-0.96991,0.347412,0.163086,17.524719,18.081665,-62.179565
1162,-0.974854,0.335083,0.168213,19.15741,15.724182,-66.261292
1163,-0.978394,0.321594,0.167175,19.309998,14.091492,-70.503235
1164,-0.989319,0.294189,0.149536,18.249512,14.556885,-70.739746
1165,-0.996399,0.282654,0.141052,17.234802,15.037537,-69.847107
1166,-1.001465,0.270569,0.135132,16.311646,15.396118,-67.802429
1167,-0.997437,0.25769,0.128113,15.060425,15.846252,-64.77356
1168,-0.991394,0.247498,0.125854,10.910034,16.326904,-56.983948
1169,-0.980774,0.229187,0.127747,8.163452,16.555786,-52.658081
1170,-0.972656,0.223694,0.130066,5.332947,16.723633,-48.179626
1171,-0.970764,0.221436,0.127869,2.334595,16.647339,-43.678284
1172,-0.968506,0.217834,0.128845,-0.816345,16.136169,-39.024353
1173,-0.967773,0.21637,0.133118,-3.944397,15.472412,-34.317017
1174,-0.960938,0.218445,0.141052,-6.980896,14.526367,-30.006409
1175,-0.957947,0.221191,0.147827,-12.18414,11.703491,-22.636414
1176,-0.95813,0.227051,0.165894,-13.99993,9.635925,-20.324707
1177,-0.964111,0.230347,0.177795,-15.30456,7.667542,-18.974304
1178,-0.971313,0.233643,0.18512,-16.18194,5.813599,-18.661499
1179,-0.98053,0.235168,0.194641,-16.33453,4.348755,-19.66095
1180,-0.994141,0.239136,0.195801,-13.30566,3.486633,-26.092529
1181,-1.035706,0.249695,0.197205,-9.628296,4.180908,-31.387329
1182,-1.059814,0.253784,0.192383,-4.371643,5.615234,-37.788391
1183,-1.079163,0.25238,0.191528,1.976013,7.736206,-44.998169
1184,-1.093872,0.244263,0.18866,8.857727,10.154724,-52.902222
1185,-1.11377,0.221619,0.186096,22.903442,16.357422,-69.389343
1186,-1.119202,0.207275,0.177795,29.502869,19.523621,-77.552795
1187,-1.124512,0.193359,0.174011,35.614014,22.331238,-85.548401
1188,-1.132996,0.180664,0.178528,41.152954,24.971008,-93.299866
1189,-1.135498,0.170227,0.19043,49.606323,30.11322,-108.337402
1190,-1.138123,0.165894,0.196533,52.963257,33.340454,-115.661621
1191,-1.153931,0.161194,0.225891,55.686951,36.476135,-122.924805
1192,-1.168823,0.157166,0.228943,59.646606,38.864136,-130.554199
1193,-1.180786,0.155151,0.239929,64.64386,41.000366,-138.618469
1194,-1.183655,0.15448,0.267151,76.629639,44.212341,-156.799316
1195,-1.181824,0.142517,0.287231,83.824158,44.441223,-167.08374
1196,-1.182373,0.125732,0.283081,91.819763,43.792725,-177.993774
1197,-1.183655,0.103394,0.286926,100.28839,41.824341,-189.163208
1198,-1.183594,0.074829,0.288879,107.28454,39.741516,-200.325012
1199,-1.173401,0.053345,0.288025,113.10577,37.29248,-211.135864
1200,-1.152893,-0.00647,0.27063,121.64306,31.768799,-231.002808
1201,-1.14563,-0.037292,0.27124,124.29046,29.518127,-239.6698
1202,-1.146301,-0.075378,0.28656,125.8316,26.924133,-247.268677
1203,-1.145691,-0.098022,0.257263,124.71771,24.932861,-250.0
1204,-1.129089,-0.121826,0.256042,125.37384,22.010803,-250.0
1205,-1.134949,-0.150574,0.283997,126.17492,19.317627,-250.0
1206,-1.140625,-0.182251,0.285095,126.091,17.00592,-250.0
1207,-1.136414,-0.205383,0.307007,123.7564,18.753052,-250.0
1208,-1.139648,-0.221375,0.300049,124.22943,19.14978,-250.0
1209,-1.085205,-0.278015,0.297546,129.5166,18.959045,-250.0
1210,-1.053955,-0.34082,0.268066,137.09259,16.387939,-250.0
1211,-1.043091,-0.375,0.23938,140.60211,15.144348,-250.0
1212,-1.035645,-0.41095,0.22168,143.34869,13.99231,-250.0
1213,-1.018188,-0.445129,0.198975,145.01953,12.405396,-250.0
1214,-0.992126,-0.479248,0.184082,144.52362,7.377625,-250.0
1215,-0.929504,-0.538147,0.168701,142.35687,3.578186,-250.0
1216,-0.897583,-0.562073,0.161133,138.89312,-1.144409,-250.0
1217,-0.87146,-0.58606,0.15271,134.77325,-6.67572,-250.0
1218,-0.843933,-0.606628,0.16333,130.21087,-12.840271,-250.0
1219,-0.812927,-0.624451,0.169617,120.48339,-25.733948,-250.0
1220,-0.774536,-0.663635,0.148621,116.15753,-31.776428,-250.0
1221,-0.761292,-0.675964,0.132568,112.38861,-37.406921,-247.650146
1222,-0.740417,-0.691528,0.115112,109.07745,-42.366028,-242.210388
1223,-0.720337,-0.706482,0.105957,106.23168,-46.562195,-236.39679
1224,-0.700684,-0.723694,0.095215,103.65295,-49.964905,-230.567932
1225,-0.67157,-0.746399,0.056519,99.243164,-54.283142,-219.25354
1226,-0.656799,-0.754822,0.048401,97.633362,-55.145264,-213.600159
1227,-0.641541,-0.759705,0.037415,96.374512,-55.534363,-208.175659
1228,-0.622437,-0.763428,0.029358,95.397949,-55.603027,-203.231812
1229,-0.602844,-0.766541,0.021973,94.551086,-55.610657,-198.997498
1230,-0.583801,-0.768372,0.010315,93.704224,-55.580139,-195.373535
1231,-0.567871,-0.769104,0.006287,92.262268,-55.488586,-189.918518
1232,-0.5354,-0.780029,0.04364,91.178894,-55.297852,-187.583923
1233,-0.516174,-0.787354,0.052429,89.447021,-54.794312,-185.22644
1234,-0.491821,-0.798706,0.066589,87.07428,-54.229736,-182.800293
1235,-0.473267,-0.808289,0.079346,84.144592,-53.482056,-180.206299
1236,-0.460083,-0.813416,0.088013,77.735901,-51.818848,-173.683167
1237,-0.427551,-0.831116,0.108276,74.615479,-50.788879,-169.692993
1238,-0.414917,-0.834656,0.106323,71.739197,-49.911499,-165.344238
1239,-0.402588,-0.835815,0.102478,69.229126,-48.88916,-160.896301
1240,-0.394409,-0.83728,0.106812,67.405701,-47.88208,-156.257629
1241,-0.364319,-0.844055,0.096619,67.695618,-43.739319,-146.224976
1242,-0.305786,-0.893921,0.161377,68.29071,-38.459778,-141.25824
1243,-0.186584,-0.901794,0.092285,72.616577,-34.507751,-136.428833
1244,-0.091003,-0.969971,0.194336,75.378418,-25.054932,-130.905151
1245,0.024719,-1.016785,0.274353,82.366943,-1.701355,-116.68396
1246,0.268738,-1.121277,0.401733,76.148987,10.627747,-104.164124
1247,0.13269,-1.121887,0.295349,73.036194,12.069702,-89.706421
1248,0.060913,-1.077942,0.247253,65.574646,7.751465,-73.806763
1249,0.064148,-0.982361,0.197021,55.152893,0.63324,-59.623718
1250,0.030884,-0.933228,0.166626,36.766052,-15.24353,-47.340393
1251,0.016541,-0.83374,0.221802,31.356812,-18.417358,-44.944763
1252,0.000244,-0.812317,0.234741,29.853821,-20.324707,-43.395996
1253,-0.032593,-0.820679,0.217896,32.096863,-22.186279,-42.08374
1254,-0.051147,-0.832336,0.186768,35.316467,-23.391724,-40.733337
1255,-0.085327,-0.851196,0.158386,38.841248,-24.925232,-39.466858
1256,-0.112183,-0.864319,0.143799,42.602539,-26.489258,-37.765503
1257,-0.134583,-0.883301,0.102112,50.964355,-28.579712,-34.706116
1258,-0.149536,-0.894287,0.100464,52.513123,-28.823853,-34.378052
1259,-0.105103,-0.888916,0.186951,55.885315,-33.470154,-34.049988
1260,-0.174255,-0.918274,0.271301,60.325623,-29.327393,-34.675598
1261,-0.252136,-0.831299,0.338257,68.405151,-32.623291,-32.165527
1262,-0.105347,-0.919067,0.221924,98.28186,-80.886841,-35.270691
1263,-0.201233,-0.908691,0.327881,99.212646,-89.256287,-32.318115
1264,-0.225586,-0.861633,0.313843,94.711304,-90.400696,-30.24292
1265,-0.276245,-0.81012,0.26416,87.95166,-86.051941,-29.853821
1266,-0.285156,-0.895508,0.336243,82.717896,-77.941895,-28.755188
1267,-0.259888,-0.901245,0.390808,64.598083,-79.956055,-20.767212
1268,-0.319763,-0.802124,0.356506,56.96106,-86.074829,-17.303467
1269,-0.315002,-0.816406,0.368042,61.317444,-92.018127,-16.349792
1270,-0.274414,-0.809631,0.298523,62.957764,-91.171265,-13.09967
1271,-0.270142,-0.807617,0.319458,59.906006,-84.785461,-8.728027
1272,-0.260559,-0.878479,0.372681,54.56543,-69.412231,-3.967285
1273,-0.244812,-0.890381,0.382019,32.440186,-38.978577,2.632141
1274,-0.229004,-0.829285,0.347839,28.388977,-31.829834,3.425598
1275,-0.211975,-0.815613,0.359863,28.678894,-29.678345,3.120422
1276,-0.18042,-0.810852,0.368347,31.654358,-30.967712,1.968384
1277,-0.146057,-0.812439,0.377441,34.576416,-31.646729,0.0
1278,-0.117004,-0.819092,0.385498,38.925171,-29.129028,-4.981995
1279,-0.088196,-0.826233,0.39447,39.375305,-27.694702,-7.453918
1280,-0.051392,-0.831482,0.411011,38.650513,-27.206421,-9.513855
1281,-0.033142,-0.836853,0.415405,36.880493,-28.068542,-11.077881
1282,-0.025146,-0.837646,0.411621,34.049988,-28.907776,-11.993408
1283,-0.032471,-0.837646,0.408447,30.662537,-29.075623,-12.176514
1284,-0.04303,-0.840759,0.40564,24.505615,-30.738831,-11.962891
1285,-0.078186,-0.83783,0.394287,21.789551,-31.402588,-12.336731
1286,-0.089539,-0.836304,0.389404,19.287109,-31.806946,-12.756348
1287,-0.091675,-0.83783,0.386963,16.88385,-32.905579,-13.496399
1288,-0.091492,-0.83728,0.368042,14.663696,-34.461975,-14.457703
1289,-0.094299,-0.839111,0.348938,12.512207,-35.568237,-15.823364
1290,-0.104126,-0.838867,0.328125,11.199951,-36.567688,-17.944336
1291,-0.131714,-0.827454,0.298828,12.481689,-37.658691,-24.154663
1292,-0.136047,-0.829895,0.295349,14.846802,-38.024902,-27.709961
1293,-0.134949,-0.8349,0.302307,17.654419,-38.398743,-31.082153
1294,-0.13324,-0.83905,0.310425,20.675659,-38.673401,-34.248352
1295,-0.134949,-0.843933,0.323669,23.345947,-38.993835,-36.743164
1296,-0.137329,-0.846436,0.339966,26.992798,-39.955139,-39.588928
1297,-0.132629,-0.850891,0.365723,27.420044,-40.412903,-39.916992
1298,-0.124512,-0.850464,0.372986,26.924133,-41.030884,-39.794922
1299,-0.116882,-0.848328,0.380798,25.726318,-41.702271,-38.978577
1300,-0.097229,-0.849792,0.384277,21.42334,-43.045044,-35.835266
1301,-0.072144,-0.854858,0.384949,18.920898,-43.800354,-33.721924
1302,-0.064453,-0.856873,0.380798,16.387939,-43.777466,-31.143188
1303,-0.057251,-0.858521,0.385498,14.152527,-43.556213,-28.236389
1304,-0.049377,-0.861084,0.380127,12.649536,-43.540955,-24.871826
1305,-0.040527,-0.862854,0.372192,11.222839,-42.411804,-16.441345
1306,-0.043518,-0.859009,0.364563,11.322021,-41.19873,-11.444092
1307,-0.044739,-0.85144,0.370483,12.046814,-40.504456,-5.958557
1308,-0.043335,-0.850159,0.369446,13.458252,-40.283203,-0.358582
1309,-0.044678,-0.845886,0.368469,14.648438,-39.421082,5.226135
1310,-0.04657,-0.839661,0.370117,17.25769,-39.131165,15.533447
1311,-0.04657,-0.836426,0.368347,19.073486,-40.161133,19.706726
1312,-0.038086,-0.831604,0.361389,20.805359,-41.816711,23.399353
1313,-0.028809,-0.828308,0.359009,23.025513,-44.136047,26.321411
1314,-0.027344,-0.817017,0.357056,25.627136,-46.531677,28.274536
1315,-0.025818,-0.811096,0.354187,30.769348,-50.270081,28.862
1316,-0.023621,-0.803223,0.372559,33.325195,-52.29187,27.687073
1317,-0.029724,-0.80072,0.391418,35.140991,-54.100037,25.787354
1318,-0.038757,-0.794128,0.417053,35.850525,-55.427551,23.353577
1319,-0.05481,-0.78241,0.437378,35.491943,-56.472778,20.6604
1320,-0.069458,-0.771973,0.450195,34.065247,-56.82373,17.64679
1321,-0.0849,-0.76178,0.468506,31.890869,-56.541443,14.656067
1322,-0.095154,-0.754822,0.492188,25.398254,-55.160522,9.124756
1323,-0.075256,-0.753479,0.546082,20.812988,-53.993225,6.759644
1324,0.007202,-0.956421,0.346619,-28.83911,-10.345459,12.443542
1325,-0.125183,-1.055481,0.318359,-6.210327,-13.580322,3.852844
1326,-0.118958,-1.042847,0.321106,-2.723694,-12.413025,0.63324
1327,-0.106873,-1.040588,0.330017,0.75531,-10.368347,-2.6474
1328,-0.094788,-1.041443,0.350769,4.066467,-8.323669,-5.79834
1329,-0.085938,-1.039368,0.36084,6.752014,-6.68335,-8.720398
1330,-0.076782,-1.037476,0.379089,8.483887,-5.012512,-11.34491
1331,-0.052246,-1.035828,0.397827,8.155823,-4.241943,-15.99884
1332,-0.001709,-1.023865,0.420532,6.011963,-4.943848,-18.013
1333,0.009705,-1.015381,0.418945,3.334045,-6.126404,-19.66095
1334,0.016479,-1.008667,0.412354,0.434875,-7.598877,-20.820618
1335,0.015869,-0.996155,0.401428,-3.761292,-9.880066,-21.400452
1336,0.006531,-0.980957,0.384949,-4.394531,-10.368347,-20.568848
1337,-0.006653,-0.954529,0.355225,-4.03595,-10.688782,-19.004822
1338,-0.008057,-0.945007,0.344666,-2.89917,-10.414124,-16.555786
1339,-0.006348,-0.935608,0.349792,-1.144409,-9.338379,-13.282776
1340,-0.009888,-0.927551,0.349609,1.13678,-7.926941,-9.475708
1341,-0.00354,-0.92865,0.342102,7.743835,-3.074646,2.243042
1342,-0.002747,-0.921692,0.328796,10.665894,-3.990173,7.369995
1343,-0.008606,-0.921082,0.324524,11.795044,-5.195618,9.147644
1344,-0.02356,-0.913391,0.315735,12.786865,-6.858826,10.3302
1345,-0.041748,-0.908386,0.308105,13.458252,-8.255005,10.887146
1346,-0.058594,-0.907288,0.315735,14.038086,-9.567261,10.96344
1347,-0.068481,-0.905945,0.320251,14.48822,-11.550903,10.452271
1348,-0.080872,-0.907104,0.31427,14.205933,-12.748718,9.208679
1349,-0.116028,-0.898926,0.304993,12.435913,-14.205933,4.684448
1350,-0.136719,-0.892822,0.301941,11.367798,-13.916016,1.739502
1351,-0.147644,-0.883423,0.295593,10.681152,-12.72583,-1.350403
1352,-0.141968,-0.877258,0.289795,10.017395,-10.978699,-4.53949
1353,-0.114929,-0.865295,0.301453,8.514404,-8.148193,-9.880066
1354,-0.107666,-0.854004,0.304565,7.522583,-5.867004,-11.71875
1355,-0.088745,-0.847961,0.31543,6.80542,-4.455566,-13.061523
1356,-0.068176,-0.840698,0.335449,6.111145,-4.066467,-13.801575
1357,-0.050476,-0.834167,0.35321,4.379272,-3.189087,-12.809753
1358,-0.034058,-0.80835,0.374817,3.463745,-3.341675,-11.161804
1359,-0.03186,-0.797791,0.395996,2.761841,-3.417969,-8.773804
1360,-0.0271,-0.789978,0.409851,2.151489,-2.479553,-5.638123
1361,-0.009033,-0.788391,0.42041,1.441956,-1.274109,-1.800537
1362,0.010132,-0.78772,0.429077,0.198364,-0.938416,5.1651
1363,0.040833,-0.794983,0.4245,-0.663757,-1.495361,8.377075
1364,0.058289,-0.796326,0.42627,-1.708984,-2.601624,11.497498
1365,0.06781,-0.800171,0.428894,-2.807617,-3.78418,14.320374
1366,0.079468,-0.803711,0.426697,-4.058838,-5.332947,17.036438
1367,0.087158,-0.808167,0.41803,-6.141663,-9.567261,21.492004
1368,0.08905,-0.81189,0.404602,-6.210327,-11.520386,23.231506
1369,0.076599,-0.811279,0.420532,-5.775452,-13.206482,24.543762
1370,0.059937,-0.808594,0.43512,-5.073547,-14.11438,25.413513
1371,0.039734,-0.809692,0.445496,-4.638672,-14.305115,25.558472
1372,0.021179,-0.813232,0.455811,-4.78363,-14.144897,24.909973
1373,0.009338,-0.829407,0.473816,-5.645752,-14.213562,23.31543
1374,0.012451,-0.865356,0.485535,-9.750366,-15.892029,17.822266
1375,0.015686,-0.879883,0.489929,-13.00811,-17.311096,14.373779
1376,0.020325,-0.896118,0.484924,-16.77703,-18.692017,11.054993
1377,0.018433,-0.910278,0.469299,-20.88165,-19.752502,8.209229
1378,0.019104,-0.923279,0.444885,-24.76501,-20.553589,5.599976
1379,0.016785,-0.930847,0.425049,-29.953,-20.973206,1.747131
1380,0.003723,-0.938354,0.365112,-30.97534,-20.935059,0.389099
1381,-0.010742,-0.940613,0.340454,-30.96008,-20.339966,-0.556946
1382,-0.02301,-0.940796,0.325073,-29.83093,-19.309998,-0.900269
1383,-0.038391,-0.940247,0.287354,-24.9176,-15.312195,0.343323
1384,-0.045105,-0.939514,0.261963,-21.3623,-13.275146,1.808167
1385,-0.049866,-0.941711,0.249023,-17.24243,-11.047363,3.913879
1386,-0.04303,-0.950623,0.252258,-12.62664,-9.567261,6.515503
1387,-0.022034,-0.95105,0.249268,-7.865906,-9.407043,9.338379
1388,-0.004517,-0.951904,0.255554,-0.289917,-10.528564,14.11438
1389,0.003906,-0.95459,0.265564,1.983643,-11.772156,16.227722
1390,0.001465,-0.965881,0.294128,3.135681,-13.847351,17.944336
1391,0.002258,-0.965149,0.302185,2.891541,-15.342712,19.050598
1392,-0.001038,-0.963196,0.304993,1.800537,-17.272949,19.348145
1393,-0.012573,-0.957214,0.301941,-0.732422,-21.820068,17.684937
1394,-0.054077,-0.941162,0.315002,-2.113342,-23.719788,16.212463
1395,-0.072693,-0.933472,0.320129,-3.646851,-24.711609,14.396667
1396,-0.090881,-0.925476,0.328186,-5.378723,-25.169373,12.268066
1397,-0.107117,-0.908203,0.331238,-7.225037,-24.711609,9.925842
1398,-0.11676,-0.896118,0.326355,-9.223938,-23.5672,7.614136
1399,-0.121643,-0.88208,0.324402,-11.43646,-21.751404,5.447388
1400,-0.129395,-0.868958,0.319336,-13.66424,-19.393921,3.479004
1401,-0.138367,-0.856323,0.309326,-17.43316,-13.198853,0.244141
1402,-0.140564,-0.837952,0.280334,-18.50128,-10.223389,-1.12915
1403,-0.136963,-0.833191,0.276428,-19.14978,-7.575989,-2.26593
1404,-0.132629,-0.829895,0.270386,-19.45495,-5.508423,-3.349304
1405,-0.127991,-0.825867,0.266479,-19.5465,-3.90625,-4.165649
1406,-0.124451,-0.82373,0.27002,-19.63806,-2.914429,-5.203247
1407,-0.119019,-0.816345,0.268921,-19.6228,-2.304077,-6.347656
1408,-0.116516,-0.79718,0.269104,-19.47784,-1.739502,-8.605957
1409,-0.111389,-0.784485,0.26593,-19.77539,-1.846313,-9.635925
1410,-0.105225,-0.769348,0.27301,-20.48492,-2.708435,-10.498047
1411,-0.105469,-0.75592,0.271179,-21.36993,-2.952576,-10.665894
1412,-0.108154,-0.744446,0.277527,-22.69744,-2.380371,-10.108948
1413,-0.116638,-0.726257,0.274719,-27.81677,-1.00708,-6.744385
1414,-0.108215,-0.700439,0.297729,-30.89904,0.793457,-4.03595
1415,-0.099854,-0.699829,0.295044,-34.63745,2.815247,-1.716614
1416,-0.108276,-0.703369,0.294556,-38.25378,4.623413,0.961304
1417,-0.132935,-0.696838,0.27771,-41.40472,6.92749,3.479004
1418,-0.145508,-0.710327,0.265869,-44.87609,9.45282,8.43811
1419,-0.125977,-0.723572,0.271118,-44.86846,10.978699,11.33728
1420,-0.12854,-0.710205,0.267334,-43.52569,11.528015,13.206482
1421,-0.108704,-0.710815,0.261047,-41.27502,13.290405,14.503479
1422,-0.100098,-0.729614,0.288574,-39.14642,12.557983,14.564514
1423,-0.121765,-0.721985,0.270142,-37.36114,12.023926,13.420105
1424,-0.094543,-0.748291,0.28656,-36.65924,12.588501,12.969971
1425,-0.125183,-0.779358,0.287109,-36.04888,8.789063,8.590698
1426,-0.124451,-0.786133,0.274841,-36.04888,7.369995,7.194519
1427,-0.125061,-0.795166,0.258423,-36.38458,6.019592,6.919861
1428,-0.140137,-0.809998,0.224121,-36.63635,5.599976,6.950378
1429,-0.157043,-0.829163,0.186096,-36.026,6.484985,7.194519
1430,-0.180908,-0.851135,0.130432,-30.29632,15.731812,9.002686
1431,-0.146484,-0.904785,0.051392,-25.177,23.208618,11.428833
1432,-0.086792,-0.937744,0.073975,-19.52362,28.121948,14.793396
1433,-0.041321,-0.976746,0.108582,-14.77813,33.752441,17.745972
1434,-0.009766,-1.004822,0.119751,-5.2948,38.116455,22.613525
1435,0.003479,-1.030457,0.142273,-1.045227,37.437439,25.550842
1436,0.036194,-1.012939,0.209229,3.219604,34.416199,29.624939
1437,0.051208,-1.010254,0.181702,9.284973,30.258179,34.606934
1438,0.076294,-1.014526,0.14447,15.296936,25.550842,39.108276
1439,0.084106,-1.017029,0.145752,21.240234,21.54541,43.869019
1440,0.092957,-1.026062,0.177979,26.618958,17.250061,48.698425
1441,0.060852,-1.078186,0.251953,32.920837,5.744934,55.557251
1442,0.024475,-1.081116,0.247864,34.263611,-0.053406,58.021545
1443,-0.013733,-1.080994,0.226868,35.194397,-4.058838,60.394287
1444,-0.042114,-1.080994,0.208069,35.774231,-7.347107,65.124512
1445,-0.023804,-1.04071,0.213928,35.484314,-6.835938,68.908691
1446,-0.035156,-1.010132,0.239807,35.476685,-5.882263,73.387146
1447,-0.05896,-0.992798,0.267883,35.942078,-5.218506,77.850342
1448,-0.083618,-0.987915,0.282288,37.223816,-5.393982,81.809998
1449,-0.012512,-0.973633,0.156006,40.115356,-5.04303,85.533142
1450,-0.034729,-0.970093,0.217957,46.211243,-4.005432,92.170715
1451,-0.15741,-0.955261,0.25238,49.125671,0.938416,95.016479
1452,-0.067993,-0.964966,0.232605,51.193237,-4.440308,95.77179
1453,-0.204041,-0.954102,0.255066,54.405212,-1.106262,96.977234
1454,-0.134705,-0.97821,0.246216,56.114197,-6.05011,95.092773
1455,-0.245789,-0.966736,0.260193,58.708191,-5.088806,94.13147
1456,-0.210388,-0.984558,0.249023,61.950684,-9.124756,87.501526
1457,-0.27179,-1.00061,0.238525,63.186646,-11.34491,82.473755
1458,-0.316345,-1.003784,0.271729,64.590454,-11.08551,77.522278
1459,-0.277649,-1.008423,0.246094,65.406799,-12.245178,71.434021
1460,-0.295349,-0.998291,0.273315,65.689087,-9.742737,65.803528
1461,-0.270508,-0.994263,0.274048,63.423157,-5.54657,55.122375
1462,-0.276123,-0.976563,0.27887,60.752869,-3.303528,50.674438
1463,-0.280334,-0.96991,0.251465,57.922363,1.113892,46.737671
1464,-0.268127,-0.97052,0.233948,54.763794,5.92804,43.106079
1465,-0.246582,-0.975891,0.18457,52.185059,12.168884,39.230347
1466,-0.198853,-0.94928,0.20459,49.804688,18.768311,35.03418
1467,-0.226868,-0.907227,0.305481,45.318604,26.306152,27.96936
1468,-0.260864,-0.892883,0.38031,42.640686,26.115417,24.688721
1469,-0.294128,-0.895264,0.419739,40.481567,25.520325,21.29364
1470,-0.307251,-0.908752,0.479492,38.078308,23.345947,17.562866
1471,-0.315125,-0.921997,0.523071,31.402588,16.914368,8.857727
1472,-0.31012,-0.910889,0.581177,26.512146,13.031006,4.135132
1473,-0.320496,-0.893188,0.585449,20.980835,9.307861,0.007629
1474,-0.307678,-0.861511,0.598572,15.731812,4.905701,-3.364563
1475,-0.299622,-0.832703,0.570251,11.322021,0.648499,-5.592346
1476,-0.266113,-0.825195,0.417664,4.768372,-8.537292,-7.980347
1477,-0.258728,-0.838013,0.374329,5.714417,-8.422852,-8.132935
1478,-0.254883,-0.847778,0.336487,6.591797,-7.331848,-7.774353
1479,-0.269043,-0.847839,0.308777,7.530212,-5.500793,-7.072449
1480,-0.275635,-0.846558,0.304321,8.491516,-3.27301,-5.958557
1481,-0.268311,-0.840942,0.306824,9.506226,-0.62561,-4.470825
1482,-0.246216,-0.832581,0.319397,10.375977,1.876831,-2.418518
1483,-0.213928,-0.826721,0.328369,11.123657,4.089355,0.259399
1484,-0.183167,-0.81189,0.343872,12.580872,6.454468,6.950378
1485,-0.15564,-0.772217,0.338623,13.900757,6.958008,11.09314
1486,-0.149841,-0.739319,0.33136,15.655518,8.049011,15.808105
1487,-0.159302,-0.704285,0.317322,17.593384,10.169983,21.316528
1488,-0.179993,-0.663757,0.309631,19.53125,13.465881,27.076721
1489,-0.19397,-0.670715,0.310364,21.339417,18.386841,31.982422
1490,-0.213013,-0.713562,0.313416,22.117615,22.918701,38.284302
1491,-0.248779,-0.855774,0.362488,13.778687,30.235291,52.772522
1492,-0.379456,-1.164734,0.408508,3.929138,33.51593,56.83136
1493,-0.409546,-1.266235,0.47168,-4.371643,36.254883,58.631897
1494,-0.484436,-1.359619,0.554504,-5.767822,34.080505,55.656433
1495,-0.484558,-1.277466,0.503723,-6.706238,20.6604,40.412903
1496,-0.385803,-1.156006,0.383423,-5.714417,21.865845,34.759521
1497,-0.387451,-1.197266,0.413696,-6.759644,29.701233,29.891968
1498,-0.362183,-1.144043,0.39917,-8.079529,34.317017,25.436401
1499,-0.380066,-1.126465,0.416809,-7.843018,36.857605,22.743225
1500,-0.406677,-1.115417,0.383057,-4.928589,33.64563,22.743225
1501,-0.464355,-1.030029,0.3349,-0.62561,28.999329,25.337219
1502,-0.471069,-1.004517,0.309875,4.486084,24.597168,28.686523
1503,-0.474976,-0.986145,0.284912,10.070801,21.858215,32.089233
1504,-0.493042,-0.952087,0.241394,20.652771,20.866394,35.163879
1505,-0.531921,-0.914917,0.211121,25.642395,17.700195,32.341003
1506,-0.474365,-0.928345,0.332886,31.974792,8.255005,29.922485
1507,-0.425049,-0.90625,0.380981,37.071228,1.464844,27.870178
1508,-0.391113,-0.881042,0.416992,40.054321,1.281738,25.794983
1509,-0.394531,-0.861694,0.45874,40.763855,3.684998,23.445129
1510,-0.454102,-0.840271,0.490112,39.657593,-0.976563,17.822266
1511,-0.482056,-0.824829,0.49762,37.651062,-3.982544,14.045715
1512,-0.498657,-0.809814,0.491272,33.782959,-6.874084,9.613037
1513,-0.501099,-0.798889,0.480591,29.22821,-8.827209,5.111694
1514,-0.493591,-0.788269,0.460266,24.94812,-10.139465,0.938416
1515,-0.467285,-0.773804,0.438171,21.202087,-11.161804,-2.593994
1516,-0.469177,-0.754517,0.416443,18.348694,-12.420654,-5.41687
1517,-0.588013,-0.684753,0.378296,15.632629,-12.260437,-14.686584
1518,-0.417419,-0.67218,0.44342,14.953613,-15.075684,-20.370483
1519,-0.428284,-0.658691,0.418457,12.443542,-18.005371,-22.697449
1520,-0.442566,-0.671326,0.402588,7.614136,-17.242432,-22.93396
1521,-0.419678,-0.697754,0.440063,-1.12915,-23.429871,-23.849487
1522,-0.381287,-0.719543,0.434143,-5.561829,-23.773193,-24.620056
1523,-0.325256,-0.754028,0.415466,-8.56781,-24.398804,-24.719238
1524,-0.312439,-0.773132,0.423279,-10.50567,-26.382446,-24.177551
1525,-0.31012,-0.792664,0.430359,-11.23046,-28.106689,-23.345947
1526,-0.317078,-0.816345,0.429932,-11.07788,-29.312134,-21.102905
1527,-0.302673,-0.862244,0.412659,-9.95636,-29.197693,-19.561768
1528,-0.310486,-0.87262,0.417542,-8.430481,-28.091431,-17.463684
1529,-0.329407,-0.876404,0.434265,-7.423401,-26.96228,-15.472412
1530,-0.330017,-0.875916,0.428284,-6.973267,-25.794983,-14.015198
1531,-0.320679,-0.877075,0.415833,-7.18689,-21.774292,-10.58197
1532,-0.322571,-0.874268,0.412598,-7.453918,-18.981934,-8.430481
1533,-0.328247,-0.870361,0.414856,-7.629395,-15.533447,-6.561279
1534,-0.324768,-0.860596,0.417542,-8.018494,-11.97052,-5.119324
1535,-0.316772,-0.851013,0.418823,-9.757996,-4.295349,-2.845764
1536,-0.304565,-0.836426,0.421509,-11.09314,-0.419617,-1.525879
1537,-0.278625,-0.816956,0.425903,-12.6419,3.311157,0.030518
1538,-0.257324,-0.802673,0.423828,-14.47296,6.866455,1.678467
1539,-0.245483,-0.790894,0.412354,-16.43371,10.704041,3.494263
1540,-0.237244,-0.777344,0.380615,-18.28765,14.015198,5.1651
1541,-0.22821,-0.754578,0.341187,-19.58465,16.822815,6.645203
1542,-0.225525,-0.71814,0.314148,-20.49255,20.141602,8.293152
1543,-0.314575,-0.830139,0.362549,-20.48492,20.523071,10.551453
1544,-0.3255,-0.856995,0.348083,-20.95031,21.629333,11.627197
1545,-0.327148,-0.8526,0.314575,-21.85821,24.673462,12.664795
1546,-0.328918,-0.834595,0.292419,-22.21679,26.20697,13.496399
1547,-0.337585,-0.8078,0.260559,-21.24023,25.032043,13.557434
1548,-0.345032,-0.781921,0.229736,-19.39392,22.521973,13.076782
1549,-0.347107,-0.758606,0.207214,-16.73889,19.371033,11.947632
1550,-0.340454,-0.746887,0.18927,-11.17706,11.497498,6.942749
1551,-0.361206,-0.746948,0.22406,-10.75744,9.254456,3.005981
1552,-0.350403,-0.759827,0.208801,-8.110046,3.295898,-0.061035
1553,-0.367493,-0.800537,0.221497,-6.118774,1.777649,-1.106262
1554,-0.381104,-0.815918,0.190735,-2.296448,-0.137329,-0.953674
1555,-0.395874,-0.838318,0.215393,6.195068,-5.073547,0.526428
1556,-0.429199,-0.894592,0.329224,9.490967,-7.858276,0.808716
1557,-0.419067,-0.897034,0.329346,11.054993,-7.751465,0.831604
1558,-0.424377,-0.892456,0.319946,10.505676,-4.470825,0.465393
1559,-0.437927,-0.894287,0.333008,8.964539,-3.707886,-0.495911
1560,-0.424561,-0.892639,0.384216,3.639221,-6.835938,-3.364563
1561,-0.40094,-0.889221,0.4104,0.900269,-6.874084,-4.074097
1562,-0.382202,-0.878296,0.438965,-1.281738,-6.317139,-4.188538
1563,-0.372742,-0.873291,0.444763,-3.02124,-5.592346,-4.096985
1564,-0.364319,-0.866028,0.457336,-6.767273,-2.441406,-4.615784
1565,-0.341064,-0.853455,0.460083,-9.20105,-0.747681,-5.706787
1566,-0.318481,-0.816528,0.452026,-11.75689,0.579834,-7.614136
1567,-0.31897,-0.805603,0.432068,-14.28985,1.228333,-10.261536
1568,-0.317688,-0.79657,0.427307,-16.60919,1.159668,-13.160706
1569,-0.309692,-0.794861,0.423767,-20.91217,-0.595093,-18.981934
1570,-0.316162,-0.801025,0.408264,-23.05603,-1.38092,-21.278381
1571,-0.323242,-0.803284,0.406067,-25.3601,-1.655579,-23.170471
1572,-0.337463,-0.803284,0.391418,-27.45819,-1.564026,-23.918152
1573,-0.345581,-0.81543,0.380798,-28.93066,-0.75531,-23.254395
1574,-0.348511,-0.830261,0.362122,-29.38079,-0.450134,-20.904541
1575,-0.344238,-0.836243,0.344055,-28.7857,-0.419617,-17.723083
1576,-0.35083,-0.843018,0.325745,-26.93939,-0.457764,-13.412476
1577,-0.351196,-0.874207,0.290771,-20.54595,-0.534058,-3.181458
1578,-0.351074,-0.885742,0.291809,-17.3645,-1.319885,0.816345
1579,-0.354858,-0.899719,0.301331,-14.57977,-1.89209,3.997803
1580,-0.359009,-0.915405,0.307373,-12.42065,-2.258301,5.92804
1581,-0.36615,-0.925781,0.32196,-10.23101,-3.53241,6.919861
1582,-0.374023,-0.926147,0.320496,-9.83429,-3.53241,6.515503
1583,-0.408691,-0.921143,0.317993,-9.20105,-3.013611,5.935669
1584,-0.415833,-0.917358,0.315613,-8.132935,-2.571106,4.966736
1585,-0.412964,-0.918457,0.307251,-6.858826,-1.846313,3.707886
1586,-0.40863,-0.918884,0.296692,-4.318237,-0.25177,-0.167847
1587,-0.385498,-0.912659,0.272522,-3.555298,0.099182,-2.838135
1588,-0.378174,-0.891235,0.275696,-3.479004,0.205994,-5.516052
1589,-0.375854,-0.878052,0.275757,-3.158569,-0.297546,-7.598877
1590,-0.359314,-0.878052,0.261963,-2.716064,-0.778198,-9.094238
1591,-0.341919,-0.86322,0.260803,-3.692627,-3.913879,-12.954712
1592,-0.326843,-0.871155,0.272461,-3.898621,-5.348206,-13.641357
1593,-0.316772,-0.875977,0.253235,-5.371094,-6.80542,-14.930725
1594,-0.318481,-0.875366,0.252563,-7.949829,-8.857727,-16.647339
1595,-0.335693,-0.879211,0.263367,-11.59668,-11.039734,-17.51709
1596,-0.349609,-0.897339,0.256958,-11.65008,-11.291504,-18.4021
1597,-0.360901,-0.895447,0.26416,-10.21575,-11.405945,-18.768311
1598,-0.372437,-0.891968,0.261597,-7.072449,-10.955811,-19.119263
1599,-0.384644,-0.887512,0.252014,-2.876282,-10.803223,-19.40155
1600,-0.392761,-0.905762,0.252197,2.288818,-10.742188,-19.432068
1601,-0.39502,-0.930908,0.249939,7.995605,-10.650635,-19.699097
1602,-0.397156,-0.977234,0.245239,17.303467,-10.414124,-21.858215
1603,-0.409302,-0.979858,0.248047,20.133972,-10.475159,-23.674011
1604,-0.42395,-0.997437,0.263306,22.644043,-10.704041,-24.780273
1605,-0.424255,-1.008667,0.265564,25.45166,-10.597229,-24.978638
1606,-0.403992,-1.035034,0.28125,27.557373,-10.467529,-25.421143
1607,-0.403992,-1.036011,0.291565,28.457642,-10.673523,-27.076721
1608,-0.405273,-1.026062,0.310608,28.663635,-11.375427,-28.938293
1609,-0.39447,-1.011108,0.316467,28.907776,-12.60376,-30.36499
1610,-0.349548,-0.939575,0.359802,27.71759,-15.937805,-27.320862
1611,-0.336609,-0.915039,0.367615,26.618958,-17.051697,-25.627136
1612,-0.323303,-0.898621,0.373413,24.681091,-17.700195,-23.612976
1613,-0.318665,-0.878662,0.379028,21.835327,-17.974854,-21.629333
1614,-0.312317,-0.861389,0.387756,17.990112,-18.035889,-19.287109
1615,-0.289246,-0.826477,0.36615,7.545471,-18.890381,-14.678955
1616,-0.272766,-0.784851,0.415771,0.816345,-21.881104,-13.183594
1617,-0.265808,-0.767578,0.4021,-5.752563,-22.453308,-10.5896
1618,-0.271179,-0.731445,0.40979,-20.64514,-21.850586,-5.516052
1619,-0.235901,-0.707458,0.442566,-27.25982,-22.644043,-2.952576
1620,-0.233765,-0.697021,0.457092,-33.26416,-21.980286,0.091553
1621,-0.229309,-0.686462,0.465881,-39.45159,-21.125793,2.609253
1622,-0.218018,-0.683594,0.460388,-45.72296,-20.530701,3.929138
1623,-0.214111,-0.678406,0.456604,-51.75781,-20.599365,4.577637
1624,-0.203064,-0.673401,0.459717,-57.44934,-20.675659,4.478455
1625,-0.188354,-0.662292,0.454224,-66.8106,-20.111084,2.258301
1626,-0.170593,-0.652649,0.451538,-69.59533,-20.027161,0.015259
1627,-0.140625,-0.637512,0.477722,-70.99151,-20.195007,-2.937317
1628,-0.150818,-0.640259,0.494263,-71.18225,-21.659851,-5.630493
1629,-0.152954,-0.680847,0.468933,-69.78607,-23.025513,-8.338928
1630,-0.148071,-0.740601,0.441833,-64.39209,-23.4375,-14.389038
1631,-0.168884,-0.863281,0.404419,-61.70654,-23.300171,-17.059326
1632,-0.17926,-0.913391,0.391479,-59.95941,-22.666931,-19.248962
1633,-0.188538,-0.953369,0.375977,-58.92944,-21.781921,-20.7901
1634,-0.197632,-0.987061,0.358215,-58.28094,-20.66803,-21.812439
1635,-0.209595,-1.016357,0.346619,-57.28912,-18.440247,-21.965027
1636,-0.219177,-1.060791,0.326233,-56.54907,-17.585754,-21.308899
1637,-0.224182,-1.071533,0.309143,-55.56488,-16.654968,-20.370483
1638,-0.234314,-1.07196,0.290405,-54.38232,-15.518188,-19.416809
1639,-0.225891,-1.076111,0.28241,-52.70385,-14.045715,-18.478394
1640,-0.225464,-1.079163,0.273987,-50.71258,-13.60321,-17.578125
1641,-0.229858,-1.066162,0.256165,-48.56872,-13.656616,-16.639709
1642,-0.238586,-1.056763,0.237244,-44.31152,-11.199951,-15.724182
1643,-0.24884,-1.042114,0.207703,-42.48046,-9.223938,-15.213013
1644,-0.259583,-1.027161,0.195923,-41.06903,-7.545471,-14.846802
1645,-0.461243,-0.933167,0.055603,-36.47613,1.403809,-19.096375
1646,-0.31189,-1.014893,0.113831,-31.66198,10.475159,-22.05658
1647,-0.272766,-1.005676,0.15509,-29.89959,11.734009,-21.16394
1648,-0.315186,-0.968445,0.160339,-29.19006,9.819031,-21.453857
1649,-0.320618,-0.950623,0.159546,-29.94537,12.054443,-24.032593
1650,-0.309265,-0.942871,0.144836,-30.79223,15.281677,-26.657104
1651,-0.312622,-0.910645,0.088623,-28.97644,19.889832,-29.075623
1652,-0.321777,-0.901917,0.095764,-27.34375,21.850586,-28.869629
1653,-0.328979,-0.908386,0.093445,-25.59661,22.583008,-27.206421
1654,-0.334412,-0.923645,0.099731,-24.80316,24.085999,-23.361206
1655,-0.341125,-0.93512,0.090881,-24.45983,26.016235,-17.433167
1656,-0.358826,-0.963562,0.085205,-24.18518,30.197144,-2.548218
1657,-0.397583,-0.981445,0.056824,-24.54376,32.798767,6.454468
1658,-0.416809,-1.00238,0.042053,-24.68872,35.766602,15.830994
1659,-0.414673,-1.02478,0.054871,-23.33068,37.849426,24.375916
1660,-0.418213,-1.066345,0.026978,-19.86694,40.565491,32.463074
1661,-0.396729,-1.075745,0.07196,-15.04516,46.905518,43.945313
1662,-0.355164,-0.973022,0.034546,-12.93182,51.376343,47.76001
1663,-0.306519,-0.951294,0.039551,-12.50457,57.243347,51.841736
1664,-0.298584,-1.002991,0.102966,-12.35199,61.004639,52.146912
1665,-0.23114,-1.01947,0.148682,-11.6043,59.806824,50.842285
1666,-0.206787,-1.048035,0.194336,-10.66589,53.726196,46.928406
1667,-0.189575,-1.05011,0.219238,-10.54382,46.653748,41.732788
1668,-0.167358,-1.063416,0.25946,-10.53619,38.467407,28.823853
1669,-0.161255,-1.067871,0.269287,-10.96344,34.622192,22.018433
1670,-0.155945,-1.07074,0.277039,-11.36779,28.503418,15.518188
1671,-0.158569,-1.069214,0.282227,-12.11547,21.629333,9.124756
1672,-0.146667,-1.067993,0.298279,-13.38195,14.564514,2.876282
1673,-0.123047,-1.063477,0.309998,-15.12908,7.484436,-3.173828
1674,-0.103882,-1.050049,0.316345,-21.49963,-6.378174,-14.877319
1675,-0.088074,-1.015991,0.311707,-25.78735,-12.908936,-20.675659
1676,-0.085205,-0.992615,0.295776,-30.29632,-18.661499,-26.268005
1677,-0.09137,-0.96344,0.274841,-38.74969,-25.726318,-35.003662
1678,-0.110962,-0.893982,0.213013,-42.25158,-26.756287,-37.910461
1679,-0.117737,-0.855835,0.184387,-44.52514,-26.626587,-39.779663
1680,-0.120544,-0.821289,0.156006,-45.73822,-25.657654,-40.481567
1681,-0.123657,-0.782959,0.125366,-45.85266,-23.712158,-40.184021
1682,-0.122314,-0.752808,0.109192,-45.23468,-20.721436,-38.848877
1683,-0.115173,-0.726929,0.095093,-43.66302,-17.501831,-36.888123
1684,-0.084778,-0.702148,0.091431,-36.97204,-13.298035,-31.997681
1685,-0.046692,-0.692383,0.098206,-31.82983,-12.428284,-30.212402
1686,-0.011414,-0.680481,0.10553,-25.64239,-12.512207,-29.23584
1687,0.012573,-0.666992,0.108765,-18.57757,-13.923645,-29.205322
1688,0.020691,-0.652649,0.105286,-10.52856,-16.136169,-29.998779
1689,0.023315,-0.638794,0.098389,-1.647949,-18.890381,-31.448364
1690,0.018127,-0.622681,0.088074,17.807007,-23.857117,-32.814026
1691,-0.000732,-0.604919,0.077271,27.572632,-26.016235,-31.3797
1692,-0.017151,-0.599609,0.069336,36.834717,-28.213501,-27.908325
1693,-0.039185,-0.598938,0.062744,45.387268,-29.823303,-22.857666
1694,-0.065735,-0.606628,0.054993,53.314209,-30.578613,-16.235352
1695,-0.08844,-0.61908,0.049988,66.505432,-31.089783,-0.450134
1696,-0.13031,-0.649719,0.028748,71.968079,-30.479431,8.277893
1697,-0.152832,-0.666077,0.020386,76.652527,-28.671265,17.089844
1698,-0.17688,-0.687805,0.017944,80.6427,-26.473999,25.497437
1699,-0.199524,-0.716492,0.014038,83.854675,-24.116516,33.638
1700,-0.221924,-0.747559,0.016174,86.349487,-21.705627,41.107178
1701,-0.252075,-0.808777,0.032837,89.34021,-15.037537,53.611755
1702,-0.262085,-0.838623,0.051514,89.637756,-11.672974,58.151245
1703,-0.270081,-0.868225,0.074829,89.355469,-8.796692,61.058044
1704,-0.271301,-0.896545,0.09375,86.975098,-3.501892,62.332153
1705,-0.272705,-0.919739,0.114502,84.686279,-1.152039,60.882568
1706,-0.274109,-0.95636,0.151978,81.886292,0.610352,58.21228
1707,-0.281616,-0.966797,0.162964,78.735352,2.082825,54.580688
1708,-0.287903,-0.970947,0.17511,75.057983,3.707886,50.331116
1709,-0.296509,-0.974121,0.182617,66.329956,7.408142,41.015625
1710,-0.325073,-0.968201,0.199036,61.676025,9.231567,36.491394
1711,-0.332031,-0.960876,0.201477,56.526184,10.818481,32.295227
1712,-0.337524,-0.952454,0.207703,51.185608,12.275696,28.701782
1713,-0.346558,-0.9375,0.216309,45.677185,13.763428,25.794983
1714,-0.354248,-0.918152,0.218079,39.756775,15.411377,23.490906
1715,-0.358154,-0.896301,0.21875,33.790588,17.074585,21.606445
1716,-0.362061,-0.875732,0.2146,27.603149,18.577576,20.469666
1717,-0.374146,-0.85437,0.205688,15.487671,22.05658,20.15686
1718,-0.39917,-0.826416,0.200745,9.864807,23.681641,21.003723
1719,-0.402649,-0.810913,0.197327,4.730225,25.154114,22.30072
1720,-0.400696,-0.797607,0.191528,0.144958,26.771545,23.979187
1721,-0.400818,-0.784851,0.197937,-6.622314,29.502869,27.709961
1722,-0.400085,-0.772156,0.199402,-8.628845,30.61676,29.243469
1723,-0.3927,-0.753418,0.229919,-9.689331,31.150818,30.593872
1724,-0.391785,-0.756836,0.256042,-10.15472,31.494141,31.791687
1725,-0.379883,-0.864319,0.307922,-9.941101,31.303406,32.791138
1726,-0.376953,-1.009705,0.369202,-8.68988,24.612427,31.562805
1727,-0.424561,-1.133362,0.497742,-5.821228,21.331787,27.71759
1728,-0.43219,-1.169128,0.515747,-1.51825,19.866943,22.361755
1729,-0.448975,-1.172424,0.523376,2.410889,18.417358,16.807556
1730,-0.45697,-1.148132,0.504333,7.369995,10.505676,12.084961
1731,-0.460938,-1.116211,0.483948,10.375977,3.456116,9.109497
1732,-0.482056,-1.089294,0.462341,10.948181,0.556946,7.362366
1733,-0.490723,-1.06842,0.444885,9.880066,-5.470276,7.331848
1734,-0.504028,-1.035461,0.403687,8.552551,-8.468628,8.308411
1735,-0.50415,-1.024902,0.39325,6.446838,-9.613037,9.101868
1736,-0.4953,-1.011292,0.370667,1.930237,-8.728027,9.437561
1737,-0.466064,-0.983398,0.348694,-0.267029,-8.224487,8.735657
1738,-0.452637,-0.963989,0.339844,-2.593994,-7.499695,7.835388
1739,-0.438782,-0.945435,0.331543,-4.920959,-6.233215,6.622314
1740,-0.422058,-0.925293,0.318237,-7.30896,-4.150391,5.332947
1741,-0.408997,-0.904358,0.30835,-9.887695,-1.686096,4.03595
1742,-0.396729,-0.886047,0.296692,-12.59613,0.701904,2.76947
1743,-0.388184,-0.871826,0.28302,-15.37323,3.005981,1.495361
1744,-0.381531,-0.847717,0.254761,-21.22497,9.712219,-3.829956
1745,-0.369995,-0.841003,0.255676,-22.9187,12.794495,-6.637573
1746,-0.358032,-0.835938,0.25177,-23.71978,13.824463,-7.621765
1747,-0.354065,-0.830505,0.244019,-24.56665,14.167786,-8.491516
1748,-0.350586,-0.828674,0.239014,-25.19226,13.801575,-9.223938
1749,-0.34613,-0.825012,0.236755,-25.84838,13.252258,-9.628296
1750,-0.343811,-0.825134,0.229614,-26.53503,12.199402,-9.628296
1751,-0.339355,-0.827881,0.22937,-27.22168,10.810852,-9.513855
1752,-0.335144,-0.834778,0.230103,-28.48815,7.247925,-8.911133
1753,-0.269348,-0.867188,0.746887,-24.86419,14.480591,-8.804321
1754,-0.31311,-0.815002,1.275574,-9.521484,55.175781,-10.475159
1755,-0.34668,-0.924744,0.058289,33.950806,77.552795,-22.140503
1756,-0.415344,-0.990051,0.176331,63.88092,42.915344,-20.721436
1757,-0.211914,-0.983459,0.365417,75.675964,-1.541138,-12.199402
1758,-0.117737,-0.801086,0.477173,64.064026,-34.065247,-3.547668
1759,-0.225464,-0.830383,0.497253,31.990051,1.617432,1.319885
1760,-0.297302,-0.88678,0.338623,16.716003,28.205872,6.80542
1761,-0.346558,-0.854797,0.051147,21.514893,12.489319,9.979248
1762,-0.359009,-0.869995,0.120911,25.20752,21.591187,10.559082
1763,-0.340271,-1.009216,0.304626,17.723083,59.783936,9.025574
1764,-0.40033,-0.958069,0.249329,22.93396,35.835266,8.255005
1765,-0.380188,-0.917297,0.245239,29.785156,0.389099,7.18689
1766,-0.351196,-0.902405,0.280029,32.722473,-17.913818,5.142212
1767,-0.352051,-0.909668,0.255371,30.632019,-13.526917,3.257751
1768,-0.3573,-0.918518,0.30011,18.951416,15.541077,1.457214
1769,-0.34082,-0.917847,0.267578,18.730164,10.093689,0.343323
1770,-0.344482,-0.929993,0.25946,14.930725,17.089844,-0.663757
1771,-0.351074,-0.921875,0.227661,15.594482,10.559082,-1.541138
1772,-0.337769,-0.911011,0.238586,15.7547,5.714417,-2.151489
1773,-0.326355,-0.902466,0.247925,13.74054,9.742737,-3.02887
1774,-0.332764,-0.897644,0.254272,13.183594,9.849548,-3.257751
1775,-0.332031,-0.896729,0.259949,12.657166,8.842468,-3.143311
1776,-0.333435,-0.897156,0.261108,12.138367,9.010315,-2.845764
1777,-0.326721,-0.898621,0.262756,10.978699,9.147644,-1.914978
1778,-0.320374,-0.897949,0.251526,10.185242,9.552002,-1.167297
1779,-0.319885,-0.901917,0.254272,9.262085,9.155273,-0.282288
1780,-0.32019,-0.903809,0.263672,8.43811,8.781433,0.862122
1781,-0.321533,-0.904053,0.262146,7.980347,8.377075,1.907349
1782,-0.320068,-0.900513,0.263428,7.728577,7.385254,2.815247
1783,-0.315369,-0.898132,0.263184,7.575989,6.68335,3.662109
1784,-0.315308,-0.893494,0.257019,7.255554,6.629944,4.28009
1785,-0.318604,-0.886353,0.255371,6.385803,5.989075,5.172729
1786,-0.330994,-0.876526,0.254211,5.79071,5.989075,5.432129
1787,-0.341003,-0.87561,0.249573,5.386353,5.493164,5.477905
1788,-0.347778,-0.876709,0.251099,5.081177,4.943848,5.310059
1789,-0.349548,-0.877808,0.258057,4.882813,4.516602,4.989624
1790,-0.350037,-0.8797,0.252747,4.562378,4.959106,4.081726
1791,-0.353577,-0.881653,0.248047,4.394531,5.149841,3.517151
1792,-0.360596,-0.885376,0.246582,4.150391,5.317688,2.861023
1793,-0.364075,-0.887207,0.247131,3.974915,5.233765,1.945496
1794,-0.357666,-0.881348,0.251892,3.746033,4.631042,-0.091553
1795,-0.357056,-0.876343,0.251831,3.395081,4.852295,-0.984192
1796,-0.357117,-0.875427,0.254883,2.746582,4.959106,-1.747131
1797,-0.35675,-0.875793,0.2547,2.037048,4.829407,-2.365112
1798,-0.361572,-0.876038,0.251953,1.266479,4.91333,-3.013611
1799,-0.368103,-0.880676,0.245117,-0.068665,4.508972,-4.463196
1800,-0.370178,-0.885864,0.242371,-0.434875,4.631042,-5.41687
1801,-0.364807,-0.887451,0.241699,-0.846863,4.798889,-6.202698
1802,-0.359558,-0.891785,0.250183,-1.708984,4.386902,-7.232666
1803,-0.320007,-0.968872,0.225769,-16.54815,-5.149841,-21.179199
1804,-0.31311,-0.961853,0.224182,-16.44897,-4.440308,-21.789551
1805,-0.305786,-0.95459,0.233521,-16.08276,-3.997803,-22.163391
1806,-0.300354,-0.95343,0.237671,-15.82336,-3.959656,-22.018433
1807,-0.297119,-0.953247,0.241516,-15.65551,-4.325867,-21.697998
1808,-0.294739,-0.9552,0.247009,-15.61737,-5.249023,-21.118164
1809,-0.288757,-0.959167,0.246765,-15.82336,-6.378174,-20.378113
1810,-0.279846,-0.962952,0.242371,-16.50238,-8.102417,-19.241333
1811,-0.264893,-0.96759,0.229309,-18.75305,-11.84845,-15.853882
1812,-0.264587,-0.967834,0.220154,-20.14923,-13.641357,-13.786316
1813,-0.264465,-0.965149,0.208862,-21.11816,-15.37323,-11.657715
1814,-0.271606,-0.959534,0.198242,-21.70562,-16.708374,-9.742737
1815,-0.283508,-0.95343,0.178345,-21.6217,-18.096924,-6.744385
1816,-0.295166,-0.951172,0.159241,-21.08001,-17.959595,-5.577087
1817,-0.312378,-0.953491,0.114014,-20.21026,-17.562866,-4.226685
1818,-0.321228,-0.954956,0.093872,-19.05822,-16.670227,-2.677917
1819,-0.325867,-0.953857,0.077698,-17.8833,-15.464783,-0.999451
1820,-0.331177,-0.956421,0.062805,-15.90728,-11.09314,2.5177
1821,-0.322815,-0.943359,0.041687,-15.39611,-8.728027,4.058838
1822,-0.309692,-0.937439,0.046204,-15.57159,-6.896973,5.653381
1823,-0.294006,-0.931335,0.050476,-15.9378,-6.217957,7.156372
1824,-0.277527,-0.925354,0.055054,-16.90673,-5.691528,8.590698
1825,-0.264404,-0.922852,0.058411,-18.30291,-5.615234,9.979248
1826,-0.249878,-0.919739,0.061646,-19.92797,-6.240845,11.367798
1827,-0.239319,-0.914917,0.061462,-23.31543,-7.797241,13.343811
1828,-0.225525,-0.913635,0.061462,-25.05493,-8.773804,14.183044
1829,-0.221558,-0.912598,0.0625,-26.63421,-9.819031,14.778137
1830,-0.213501,-0.907532,0.063904,-28.15246,-10.96344,15.510559
1831,-0.20575,-0.899597,0.06189,-29.66308,-12.359619,16.197205
1832,-0.19989,-0.893616,0.058411,-33.61511,-16.067505,16.876221
1833,-0.201538,-0.89624,0.056763,-36.14807,-18.249512,16.746521
1834,-0.200989,-0.901489,0.061401,-38.76495,-20.606995,16.052246
1835,-0.203735,-0.89801,0.057373,-43.46466,-24.085999,13.473511
1836,-0.227112,-0.873901,0.02948,-44.83795,-24.69635,10.803223
1837,-0.246643,-0.859802,0.005127,-45.31097,-24.154663,7.453918
1838,-0.266235,-0.84436,0.015686,-44.43359,-22.422791,3.379822
1839,-0.289185,-0.836182,0.041443,-41.77856,-19.493103,-1.022339
1840,-0.312012,-0.823181,0.055664,-30.95245,-10.658264,-8.079529
1841,-0.358765,-0.807434,0.07196,-22.95684,-4.402161,-10.513306
1842,-0.364563,-0.794495,0.079285,-13.64898,3.433228,-12.451172
1843,-0.358521,-0.790466,0.084534,-3.570557,11.795044,-14.10675
1844,-0.353882,-0.784546,0.090881,17.585754,28.457642,-17.471313
1845,-0.346069,-0.776306,0.090698,29.029846,37.025452,-19.172668
1846,-0.353333,-0.770813,0.090759,40.397644,46.066284,-20.66803
1847,-0.361694,-0.784302,0.087463,52.017212,55.427551,-21.934509
1848,-0.363708,-0.805237,0.088135,63.446045,64.89563,-23.086548
1849,-0.357971,-0.824585,0.08551,74.34082,74.493408,-24.32251
1850,-0.341187,-0.852722,0.085327,84.495544,83.572388,-25.543213
1851,-0.323486,-0.856689,0.079956,93.299866,91.712952,-27.824402
1852,-0.30426,-0.860718,0.073242,107.26928,105.46875,-32.318115
1853,-0.305542,-0.852051,0.031189,113.95263,110.992432,-32.402039
1854,-0.303345,-0.837097,0.000732,119.91882,117.034912,-31.944275
1855,-0.284485,-0.827454,0.00769,126.02996,121.742249,-31.990051
1856,-0.265808,-0.845154,0.046875,130.69152,126.083374,-32.524109
1857,-0.261414,-0.860779,0.094116,137.99285,130.577087,-31.951904
1858,-0.250305,-0.90802,0.211182,140.625,131.011963,-31.463623
1859,-0.251648,-0.935486,0.264709,140.93017,132.621765,-31.425476
1860,-0.25354,-0.969482,0.313965,139.27459,134.002686,-32.180786
1861,-0.252075,-1.004272,0.384216,131.74438,127.792358,-35.743713
1862,-0.223511,-1.0755,0.540405,125.13732,120.84198,-37.841797
1863,-0.201294,-1.10437,0.604675,114.5935,117.301941,-39.833069
1864,-0.207825,-1.111877,0.659912,100.31127,115.066528,-41.725159
1865,-0.212341,-1.097046,0.685913,86.82251,103.263855,-43.052673
1866,-0.21991,-1.056824,0.703247,55.892944,82.28302,-44.059753
1867,-0.236328,-0.93219,0.701172,40.748596,70.777893,-43.09845
1868,-0.288818,-0.877808,0.643372,26.908875,59.09729,-41.030884
1869,-0.361755,-0.850586,0.628906,12.916565,53.451538,-38.963318
1870,-0.409119,-0.825439,0.589661,2.326965,48.484802,-37.612915
1871,-0.419983,-0.794495,0.582092,-10.13946,37.651062,-34.820557
1872,-0.448181,-0.744995,0.514832,-14.38903,38.795471,-32.821655
1873,-0.455688,-0.717468,0.490967,-15.47241,36.064148,-30.822754
1874,-0.445313,-0.706116,0.477783,-15.41137,33.683777,-28.656006
1875,-0.436646,-0.698792,0.473145,-15.74707,34.759521,-26.069641
1876,-0.428894,-0.688416,0.461853,-15.51055,34.057617,-22.674561
1877,-0.481812,-0.715759,0.429932,-10.10894,28.419495,-8.522034
1878,-0.473938,-0.729065,0.448181,-8.071899,24.95575,1.441956
1879,-0.365173,-0.753906,0.448242,-8.399963,24.56665,4.547119
1880,-0.307739,-0.764893,0.417053,-9.857178,21.67511,5.081177
1881,-0.261292,-0.758667,0.390747,-12.94708,18.638611,4.257202
1882,-0.230225,-0.759338,0.360596,-16.75415,16.937256,3.166199
1883,-0.205383,-0.762207,0.336304,-20.14923,13.275146,2.502441
1884,-0.195068,-0.770813,0.297424,-22.85766,9.208679,2.349854
1885,-0.188293,-0.781433,0.263611,-25.70343,6.393433,2.807617
1886,-0.202515,-0.789368,0.165344,-31.89849,12.718201,4.234314
1887,-0.18811,-0.825989,0.184753,-31.14318,7.644653,4.981995
1888,-0.181763,-0.822388,0.132813,-29.4342,-1.815796,6.248474
1889,-0.173828,-0.829346,0.121338,-28.11431,-5.973816,7.400513
1890,-0.207031,-0.862305,0.09137,-23.89526,-6.92749,9.513855
1891,-0.224976,-0.876282,0.07605,-20.8435,-8.499146,10.414124
1892,-0.244873,-0.8927,0.074402,-17.56286,-9.552002,11.169434
1893,-0.270813,-0.92041,0.077087,-13.91601,-9.963989,11.71875
1894,-0.301697,-0.955933,0.09491,-6.286621,-9.307861,12.748718
1895,-0.323608,-0.979553,0.10791,-2.510071,-8.666992,13.137817
1896,-0.335144,-0.99408,0.112427,1.060486,-8.049011,13.214111
1897,-0.381775,-1.027649,0.163391,4.295349,-7.881165,12.878418
1898,-0.415588,-1.033569,0.230042,6.469727,-10.2005,12.084961
1899,-0.4328,-1.035706,0.27301,7.034302,-14.686584,10.284424
1900,-0.436035,-1.041809,0.31012,5.256653,-22.81189,5.737305
1901,-0.415161,-1.049316,0.307983,4.241943,-25.016785,3.852844
1902,-0.388611,-1.03656,0.274048,4.40979,-26.992798,2.159119
1903,-0.358826,-1.01178,0.227722,5.950928,-27.923584,0.595093
1904,-0.367432,-0.996643,0.184509,9.277344,-27.153015,-1.106262
1905,-0.384583,-0.981079,0.150818,18.562317,-20.950317,-5.630493
1906,-0.430237,-0.979797,0.127075,23.4375,-17.333984,-8.491516
1907,-0.43689,-0.984985,0.128357,27.542114,-12.825012,-11.627197
1908,-0.419312,-0.985352,0.139099,30.990601,-7.759094,-14.549255
1909,-0.394409,-0.988647,0.171082,33.790588,-3.219604,-17.433167
1910,-0.362488,-0.985046,0.208435,35.919189,0.137329,-19.844055
1911,-0.286438,-0.957336,0.286499,37.376404,3.662109,-23.376465
1912,-0.265808,-0.943176,0.342712,36.071777,4.577637,-24.177551
1913,-0.239746,-0.921204,0.365723,33.836365,4.78363,-24.230957
1914,-0.140503,-0.914551,0.446045,29.434204,5.912781,-22.018433
1915,-0.132446,-0.904419,0.452698,24.902344,10.360718,-15.563965
1916,-0.18988,-0.907837,0.419067,19.340515,17.181396,-8.384705
1917,-0.242126,-0.924622,0.413818,6.93512,29.579163,1.228333
1918,-0.280701,-0.918762,0.334229,3.623962,29.586792,3.036499
1919,-0.313354,-0.904297,0.294922,3.036499,24.44458,2.655029
1920,-0.302307,-0.875061,0.276123,3.616333,15.792847,0.63324
1921,-0.268005,-0.844238,0.269043,4.547119,8.804321,-2.197266
1922,-0.247986,-0.821899,0.246887,5.737305,10.765076,-7.476807
1923,-0.247803,-0.815552,0.210266,6.68335,12.85553,-9.376526
